version,block,frequency,jitter,trial,change,response,RT,loads,ID,gender,hand,age,fixCrossFrameB,targetFrameB,fixCrossFrameA,targetFrameA,resp_type
ChD_entr_4,1,0,true,1,1,Wrong,0.895272827687037,6,S01,M,R,20,1,1,0,0,2
ChD_entr_4,1,0,true,2,0,Correct,0.885647768636463,5,S01,M,R,20,1,1,0,0,4
ChD_entr_4,1,0,true,3,1,Wrong,0.808641152232162,4,S01,M,R,20,1,1,0,0,2
ChD_entr_4,1,0,true,4,0,Correct,0.760535312975561,5,S01,M,R,20,1,1,0,0,4
ChD_entr_4,1,0,true,5,1,Correct,0.683510264574396,5,S01,M,R,20,1,1,0,0,1
ChD_entr_4,1,0,true,6,0,Correct,0.664341383792613,5,S01,M,R,20,1,1,0,0,4
ChD_entr_4,1,0,true,7,1,Correct,0.741266421544075,4,S01,M,R,20,1,1,0,0,1
ChD_entr_4,1,0,true,8,1,Wrong,0.943399829606712,6,S01,M,R,20,1,1,0,0,2
ChD_entr_4,1,0,true,9,1,Correct,1.03002638506253,5,S01,M,R,20,1,1,0,0,1
ChD_entr_4,1,0,true,10,1,Wrong,1.30916538552961,6,S01,M,R,20,1,1,0,0,2
ChD_entr_4,1,0,true,11,0,Correct,1.00115393857679,6,S01,M,R,20,1,1,0,0,4
ChD_entr_4,1,0,true,12,1,Wrong,1.04929083916145,6,S01,M,R,20,1,1,0,0,2
ChD_entr_4,1,0,true,13,1,Correct,0.731692221151416,4,S01,M,R,20,1,1,0,0,1
ChD_entr_4,1,0,true,14,0,Correct,0.856771567484544,5,S01,M,R,20,1,1,0,0,4
ChD_entr_4,1,0,true,15,0,Wrong,1.08778151803235,6,S01,M,R,20,1,1,0,0,3
ChD_entr_4,1,0,true,16,0,Correct,0.77014262269588,4,S01,M,R,20,1,1,0,0,4
ChD_entr_4,1,0,true,17,1,Wrong,0.741265738877579,6,S01,M,R,20,1,1,0,0,2
ChD_entr_4,1,0,true,18,0,Correct,0.63538667598754,4,S01,M,R,20,1,1,0,0,4
ChD_entr_4,1,0,true,19,1,Correct,0.847151969766392,5,S01,M,R,20,1,1,0,0,1
ChD_entr_4,1,0,true,20,1,Wrong,0.779771777745883,4,S01,M,R,20,1,1,0,0,2
ChD_entr_4,1,0,true,21,0,Correct,0.904894473405018,6,S01,M,R,20,1,1,0,0,4
ChD_entr_4,1,0,true,22,0,Correct,1.1456335896523,6,S01,M,R,20,1,1,0,0,4
ChD_entr_4,1,0,true,23,0,Correct,0.577713121670445,4,S01,M,R,20,1,1,0,0,4
ChD_entr_4,1,0,true,24,0,Wrong,0.943398805606969,6,S01,M,R,20,1,1,0,0,3
ChD_entr_4,1,0,true,25,1,Correct,0.827894683666243,5,S01,M,R,20,1,1,0,0,1
ChD_entr_4,1,0,true,26,1,Wrong,1.19365921558928,6,S01,M,R,20,1,1,0,0,2
ChD_entr_4,1,0,true,27,1,Correct,0.731639997160396,5,S01,M,R,20,1,1,0,0,1
ChD_entr_4,1,0,true,28,1,Correct,0.981901431142567,5,S01,M,R,20,1,1,0,0,1
ChD_entr_4,1,0,true,29,0,Wrong,1.03002638506253,5,S01,M,R,20,1,1,0,0,3
ChD_entr_4,1,0,true,30,0,Correct,1.97331494002167,4,S01,M,R,20,1,1,0,0,4
ChD_entr_4,1,0,true,31,1,Wrong,1.42466950747022,4,S01,M,R,20,1,1,0,0,2
ChD_entr_4,1,0,true,32,0,Correct,1.5305502770265,6,S01,M,R,20,1,1,0,0,4
ChD_entr_4,1,0,true,33,0,Correct,1.27066378399398,4,S01,M,R,20,1,1,0,0,4
ChD_entr_4,1,0,true,34,1,Wrong,1.22261938472666,4,S01,M,R,20,1,1,0,0,2
ChD_entr_4,1,0,true,35,0,Correct,1.39579364765178,5,S01,M,R,20,1,1,0,0,4
ChD_entr_4,1,0,true,36,1,Correct,0.741265397544331,6,S01,M,R,20,1,1,0,0,1
ChD_entr_4,1,0,true,37,0,Correct,0.673887253523424,4,S01,M,R,20,1,1,0,0,4
ChD_entr_4,1,0,true,38,1,Wrong,0.731641021160253,4,S01,M,R,20,1,1,0,0,2
ChD_entr_4,1,0,true,39,0,Correct,0.722015962109452,4,S01,M,R,20,1,1,0,0,4
ChD_entr_4,1,0,true,40,1,Wrong,0.673888960190004,5,S01,M,R,20,1,1,0,0,2
ChD_entr_4,1,0,true,41,0,Correct,0.808645248231364,6,S01,M,R,20,1,1,0,0,4
ChD_entr_4,1,0,true,42,0,Correct,1.17440841482118,5,S01,M,R,20,1,1,0,0,4
ChD_entr_4,2,7,false,1,1,Wrong,1.39579262365192,5,S01,M,R,20,15,8,0,7,2
ChD_entr_4,2,7,false,2,1,Correct,0.587258308734873,6,S01,M,R,20,14,7,1,8,1
ChD_entr_4,2,7,false,3,1,Wrong,1.60755177343185,5,S01,M,R,20,7,15,8,0,2
ChD_entr_4,2,7,false,4,0,Correct,0.596881319785732,5,S01,M,R,20,14,7,1,8,4
ChD_entr_4,2,7,false,5,1,Correct,1.05890497554718,6,S01,M,R,20,6,14,9,1,1
ChD_entr_4,2,7,false,6,0,Correct,0.962667014371959,5,S01,M,R,20,10,3,5,12,4
ChD_entr_4,2,7,false,7,1,Timeout,NaN,6,S01,M,R,20,9,2,6,13,0
ChD_entr_4,2,7,false,8,0,Correct,0.635385651987683,6,S01,M,R,20,15,8,0,7,4
ChD_entr_4,2,7,false,9,1,Wrong,0.818268259282451,5,S01,M,R,20,3,11,12,4,2
ChD_entr_4,2,7,false,10,1,Correct,0.587259674067865,4,S01,M,R,20,2,10,13,5,1
ChD_entr_4,2,7,false,11,1,Correct,0.750890797928266,4,S01,M,R,20,10,3,5,12,1
ChD_entr_4,2,7,false,12,0,Correct,0.68351299524072,4,S01,M,R,20,1,9,14,6,4
ChD_entr_4,2,7,false,13,0,Correct,1.31878907924708,5,S01,M,R,20,14,7,1,8,4
ChD_entr_4,2,7,false,14,0,Correct,0.933770674556823,6,S01,M,R,20,6,14,9,1,4
ChD_entr_4,2,7,false,15,0,Correct,0.895272486353789,5,S01,M,R,20,8,1,7,14,4
ChD_entr_4,2,7,false,16,0,Correct,0.866395943868849,5,S01,M,R,20,14,7,1,8,4
ChD_entr_4,2,7,false,17,1,Wrong,0.548758413865486,5,S01,M,R,20,8,1,7,14,2
ChD_entr_4,2,7,false,18,0,Correct,0.673965077510309,4,S01,M,R,20,5,13,10,2,4
ChD_entr_4,2,7,false,19,0,Correct,1.06852730393177,5,S01,M,R,20,4,12,11,3,4
ChD_entr_4,2,7,false,20,1,Wrong,0.750889432595047,5,S01,M,R,20,7,15,8,0,2
ChD_entr_4,2,7,false,21,0,Correct,0.722016303442814,6,S01,M,R,20,13,6,2,9,4
ChD_entr_4,2,7,false,22,1,Wrong,0.500631070612449,4,S01,M,R,20,7,15,8,0,2
ChD_entr_4,2,7,false,23,1,Wrong,0.914538305785703,4,S01,M,R,20,9,2,6,13,2
ChD_entr_4,2,7,false,24,0,Correct,0.827894683666243,4,S01,M,R,20,13,6,2,9,4
ChD_entr_4,2,7,false,25,0,Correct,0.760530534309749,6,S01,M,R,20,11,4,4,11,4
ChD_entr_4,2,7,false,26,1,Correct,0.64501241770461,6,S01,M,R,20,1,9,14,6,1
ChD_entr_4,2,7,false,27,1,Correct,0.818268941949174,4,S01,M,R,20,3,11,12,4,1
ChD_entr_4,2,7,false,28,1,Wrong,0.616136899219528,4,S01,M,R,20,2,10,13,5,2
ChD_entr_4,2,7,false,29,0,Correct,0.47175316279429,4,S01,M,R,20,7,15,8,0,4
ChD_entr_4,2,7,false,30,0,Correct,0.577632908350711,5,S01,M,R,20,12,5,3,10,4
ChD_entr_4,2,7,false,31,0,Correct,0.693136006291579,6,S01,M,R,20,6,14,9,1,4
ChD_entr_4,2,7,false,32,1,Wrong,0.722013914109965,6,S01,M,R,20,3,11,12,4,2
ChD_entr_4,2,7,false,33,1,Wrong,1.0492771858304,5,S01,M,R,20,12,5,3,10,2
ChD_entr_4,2,7,false,34,1,Correct,0.683515043240208,5,S01,M,R,20,2,10,13,5,1
ChD_entr_4,2,7,false,35,0,Correct,0.510255446996754,4,S01,M,R,20,15,8,0,7,4
ChD_entr_4,2,7,false,36,1,Correct,0.683512653907586,4,S01,M,R,20,1,9,14,6,1
ChD_entr_4,2,7,false,37,1,Wrong,1.87706230151554,6,S01,M,R,20,14,7,1,8,2
ChD_entr_4,2,7,false,38,0,Correct,0.876019978919566,4,S01,M,R,20,8,1,7,14,4
ChD_entr_4,2,7,false,39,0,Correct,0.731718845146911,6,S01,M,R,20,1,9,14,6,4
ChD_entr_4,2,7,false,40,0,Correct,0.587256943401654,4,S01,M,R,20,9,2,6,13,4
ChD_entr_4,2,7,false,41,0,Correct,0.847145484434113,6,S01,M,R,20,2,10,13,5,4
ChD_entr_4,2,7,false,42,1,Correct,0.56800853196686,6,S01,M,R,20,13,6,2,9,1
ChD_entr_4,3,0,true,1,1,Correct,0.625761616936967,6,S01,M,R,20,1,1,0,0,1
ChD_entr_4,3,0,true,2,1,Wrong,0.587260356734361,5,S01,M,R,20,1,1,0,0,2
ChD_entr_4,3,0,true,3,1,Correct,0.52950693043112,6,S01,M,R,20,1,1,0,0,1
ChD_entr_4,3,0,true,4,0,Correct,0.606510816169097,5,S01,M,R,20,1,1,0,0,4
ChD_entr_4,3,0,true,5,0,Correct,0.539132330814828,4,S01,M,R,20,1,1,0,0,4
ChD_entr_4,3,0,true,6,0,Correct,0.529508978430607,4,S01,M,R,20,1,1,0,0,4
ChD_entr_4,3,0,true,7,1,Wrong,0.760517563645193,5,S01,M,R,20,1,1,0,0,2
ChD_entr_4,3,0,true,8,1,Wrong,0.548758413865486,4,S01,M,R,20,1,1,0,0,2
ChD_entr_4,3,0,true,9,1,Wrong,0.48138061117794,4,S01,M,R,20,1,1,0,0,2
ChD_entr_4,3,0,true,10,0,Correct,0.548812003189611,5,S01,M,R,20,1,1,0,0,4
ChD_entr_4,3,0,true,11,0,Correct,0.56800955596649,6,S01,M,R,20,1,1,0,0,4
ChD_entr_4,3,0,true,12,0,Correct,0.904898228071086,6,S01,M,R,20,1,1,0,0,4
ChD_entr_4,3,0,true,13,1,Correct,0.606511840168954,4,S01,M,R,20,1,1,0,0,1
ChD_entr_4,3,0,true,14,0,Correct,0.587259332734503,5,S01,M,R,20,1,1,0,0,4
ChD_entr_4,3,0,true,15,1,Correct,0.548759779198477,4,S01,M,R,20,1,1,0,0,1
ChD_entr_4,3,0,true,16,1,Correct,0.510257153662879,5,S01,M,R,20,1,1,0,0,1
ChD_entr_4,3,0,true,17,1,Wrong,0.596884391785304,6,S01,M,R,20,1,1,0,0,2
ChD_entr_4,3,0,true,18,1,Correct,0.548835555185648,6,S01,M,R,20,1,1,0,0,1
ChD_entr_4,3,0,true,19,0,Correct,0.500631753279172,5,S01,M,R,20,1,1,0,0,4
ChD_entr_4,3,0,true,20,0,Correct,0.664260829139631,4,S01,M,R,20,1,1,0,0,4
ChD_entr_4,3,0,true,21,1,Correct,0.606510474835735,4,S01,M,R,20,1,1,0,0,1
ChD_entr_4,3,0,true,22,1,Wrong,2.27170542392301,5,S01,M,R,20,1,1,0,0,2
ChD_entr_4,3,0,true,23,0,Correct,0.558384155582783,4,S01,M,R,20,1,1,0,0,4
ChD_entr_4,3,0,true,24,1,Wrong,0.693139760957874,6,S01,M,R,20,1,1,0,0,2
ChD_entr_4,3,0,true,25,1,Wrong,0.702763454675456,4,S01,M,R,20,1,1,0,0,2
ChD_entr_4,3,0,true,26,0,Correct,0.577631884351081,6,S01,M,R,20,1,1,0,0,4
ChD_entr_4,3,0,true,27,0,Correct,0.596884050451943,6,S01,M,R,20,1,1,0,0,4
ChD_entr_4,3,0,true,28,0,Correct,0.375500182954569,4,S01,M,R,20,1,1,0,0,4
ChD_entr_4,3,0,true,29,1,Correct,0.616136557886393,6,S01,M,R,20,1,1,0,0,1
ChD_entr_4,3,0,true,30,0,Correct,1.00115939990898,6,S01,M,R,20,1,1,0,0,4
ChD_entr_4,3,0,true,31,0,Correct,0.779767681746567,5,S01,M,R,20,1,1,0,0,4
ChD_entr_4,3,0,true,32,0,Timeout,NaN,5,S01,M,R,20,1,1,0,0,0
ChD_entr_4,3,0,true,33,0,Correct,0.693139078291151,5,S01,M,R,20,1,1,0,0,4
ChD_entr_4,3,0,true,34,1,Wrong,0.645009345705265,5,S01,M,R,20,1,1,0,0,2
ChD_entr_4,3,0,true,35,0,Correct,0.558383131582925,6,S01,M,R,20,1,1,0,0,4
ChD_entr_4,3,0,true,36,1,Correct,0.471753845461013,5,S01,M,R,20,1,1,0,0,1
ChD_entr_4,3,0,true,37,1,Wrong,0.529506589097758,6,S01,M,R,20,1,1,0,0,2
ChD_entr_4,3,0,true,38,0,Correct,0.558381083582983,4,S01,M,R,20,1,1,0,0,4
ChD_entr_4,3,0,true,39,1,Correct,0.568064851956968,4,S01,M,R,20,1,1,0,0,1
ChD_entr_4,3,0,true,40,0,Correct,0.654637476755411,6,S01,M,R,20,1,1,0,0,4
ChD_entr_4,3,0,true,41,0,Correct,0.876023392252272,4,S01,M,R,20,1,1,0,0,4
ChD_entr_4,3,0,true,42,1,Correct,0.645015831037543,5,S01,M,R,20,1,1,0,0,1
ChD_entr_4,4,7,false,1,0,Correct,0.943413824271013,5,S01,M,R,20,15,8,0,7,4
ChD_entr_4,4,7,false,2,0,Correct,0.529522973095021,4,S01,M,R,20,1,9,14,6,4
ChD_entr_4,4,7,false,3,1,Wrong,1.21290694435781,6,S01,M,R,20,15,8,0,7,2
ChD_entr_4,4,7,false,4,0,Correct,0.866392871869277,4,S01,M,R,20,3,11,12,4,4
ChD_entr_4,4,7,false,5,1,Correct,0.616135192553174,5,S01,M,R,20,12,5,3,10,1
ChD_entr_4,4,7,false,6,1,Wrong,0.673886570856928,6,S01,M,R,20,2,10,13,5,2
ChD_entr_4,4,7,false,7,0,Correct,1.08778151803235,4,S01,M,R,20,1,9,14,6,4
ChD_entr_4,4,7,false,8,1,Correct,0.616132803220325,4,S01,M,R,20,2,10,13,5,1
ChD_entr_4,4,7,false,9,1,Correct,0.645011735038114,5,S01,M,R,20,7,15,8,0,1
ChD_entr_4,4,7,false,10,0,Correct,0.491005670228513,5,S01,M,R,20,9,2,6,13,4
ChD_entr_4,4,7,false,11,0,Wrong,0.548757048532494,6,S01,M,R,20,12,5,3,10,3
ChD_entr_4,4,7,false,12,1,Wrong,1.2996154197996,6,S01,M,R,20,9,2,6,13,2
ChD_entr_4,4,7,false,13,0,Correct,0.654636794088915,6,S01,M,R,20,3,11,12,4,4
ChD_entr_4,4,7,false,14,1,Correct,0.72201596210968,6,S01,M,R,20,4,12,11,3,1
ChD_entr_4,4,7,false,15,0,Correct,0.683513336574082,6,S01,M,R,20,13,6,2,9,4
ChD_entr_4,4,7,false,16,1,Wrong,0.673887936190147,5,S01,M,R,20,11,4,4,11,2
ChD_entr_4,4,7,false,17,1,Correct,0.683514360573939,5,S01,M,R,20,10,3,5,12,1
ChD_entr_4,4,7,false,18,0,Correct,1.12628107156837,6,S01,M,R,20,8,1,7,14,4
ChD_entr_4,4,7,false,19,0,Correct,0.558382448916202,5,S01,M,R,20,5,13,10,2,4
ChD_entr_4,4,7,false,20,0,Correct,0.616135192553174,6,S01,M,R,20,1,9,14,6,4
ChD_entr_4,4,7,false,21,1,Wrong,0.471753845460786,5,S01,M,R,20,6,14,9,1,2
ChD_entr_4,4,7,false,22,1,Wrong,0.673888960189777,5,S01,M,R,20,11,4,4,11,2
ChD_entr_4,4,7,false,23,0,Correct,0.70276482000822,6,S01,M,R,20,10,3,5,12,4
ChD_entr_4,4,7,false,24,1,Correct,0.529507271764481,4,S01,M,R,20,6,14,9,1,1
ChD_entr_4,4,7,false,25,1,Wrong,0.673886912190289,4,S01,M,R,20,5,13,10,2,2
ChD_entr_4,4,7,false,26,1,Wrong,0.933769991890327,5,S01,M,R,20,4,12,11,3,2
ChD_entr_4,4,7,false,27,0,Correct,0.423638107539314,4,S01,M,R,20,6,14,9,1,4
ChD_entr_4,4,7,false,28,0,Correct,0.519880847380461,4,S01,M,R,20,1,9,14,6,4
ChD_entr_4,4,7,false,29,1,Correct,0.693141808957362,4,S01,M,R,20,1,9,14,6,1
ChD_entr_4,4,7,false,30,0,Correct,0.856770884818048,6,S01,M,R,20,13,6,2,9,4
ChD_entr_4,4,7,false,31,1,Correct,0.596882002452455,4,S01,M,R,20,8,1,7,14,1
ChD_entr_4,4,7,false,32,0,Correct,0.529505906431262,5,S01,M,R,20,15,8,0,7,4
ChD_entr_4,4,7,false,33,1,Correct,0.577631884351081,4,S01,M,R,20,14,7,1,8,1
ChD_entr_4,4,7,false,34,0,Wrong,0.779768023079929,4,S01,M,R,20,8,1,7,14,3
ChD_entr_4,4,7,false,35,1,Wrong,0.558382448916429,6,S01,M,R,20,11,4,4,11,2
ChD_entr_4,4,7,false,36,0,Correct,0.548756365865771,5,S01,M,R,20,7,15,8,0,4
ChD_entr_4,4,7,false,37,0,Correct,0.51025612966325,5,S01,M,R,20,4,12,11,3,4
ChD_entr_4,4,7,false,38,1,Correct,0.789389668797796,4,S01,M,R,20,5,13,10,2,1
ChD_entr_4,4,7,false,39,1,Wrong,0.943398464273607,6,S01,M,R,20,7,15,8,0,2
ChD_entr_4,4,7,false,40,1,Wrong,0.702763454675229,6,S01,M,R,20,8,1,7,14,2
ChD_entr_4,4,7,false,41,0,Correct,0.452502703359781,5,S01,M,R,20,4,12,11,3,4
ChD_entr_4,4,7,false,42,0,Wrong,0.924149711505452,4,S01,M,R,20,11,4,4,11,3
ChD_entr_4,5,4,true,1,0,Correct,0.606509792169239,5,S01,M,R,20,26,106,0,11,4
ChD_entr_4,5,4,true,2,1,Correct,0.423628550207463,5,S01,M,R,20,6,42,16,6,1
ChD_entr_4,5,4,true,3,0,Correct,0.616126659221409,6,S01,M,R,20,37,25,18,6,4
ChD_entr_4,5,4,true,4,1,Wrong,0.654636452755553,6,S01,M,R,20,23,18,50,21,2
ChD_entr_4,5,4,true,5,0,Correct,0.49101283822706,4,S01,M,R,20,6,27,6,24,4
ChD_entr_4,5,4,true,6,0,Correct,0.722013914109738,6,S01,M,R,20,46,79,26,6,4
ChD_entr_4,5,4,true,7,1,Wrong,0.741263349544616,5,S01,M,R,20,33,46,91,19,2
ChD_entr_4,5,4,true,8,0,Correct,0.471833034780662,4,S01,M,R,20,58,6,3,55,4
ChD_entr_4,5,4,true,9,1,Correct,0.568009214633583,6,S01,M,R,20,96,44,7,59,1
ChD_entr_4,5,4,true,10,1,Correct,0.596882685118951,6,S01,M,R,20,4,24,2,29,1
ChD_entr_4,5,4,true,11,1,Wrong,1.29954237447864,5,S01,M,R,20,18,15,17,34,2
ChD_entr_4,5,4,true,12,1,Correct,0.548757389865628,5,S01,M,R,20,18,49,1,24,1
ChD_entr_4,5,4,true,13,1,Wrong,0.722014255443099,6,S01,M,R,20,16,57,82,36,2
ChD_entr_4,5,4,true,14,0,Correct,0.664259463806867,6,S01,M,R,20,5,55,7,10,4
ChD_entr_4,5,4,true,15,1,Correct,0.568017065298626,5,S01,M,R,20,21,41,56,27,1
ChD_entr_4,5,4,true,16,1,Correct,0.645015148370593,6,S01,M,R,20,8,3,6,13,1
ChD_entr_4,5,4,true,17,1,Correct,0.54875773119899,4,S01,M,R,20,41,15,48,11,1
ChD_entr_4,5,4,true,18,0,Correct,1.24178724150904,4,S01,M,R,20,21,3,25,31,4
ChD_entr_4,5,4,true,19,0,Correct,0.38512524200537,5,S01,M,R,20,14,24,96,38,4
ChD_entr_4,5,4,true,20,1,Wrong,0.837518036050236,6,S01,M,R,20,35,16,1,8,2
ChD_entr_4,5,4,true,21,1,Correct,0.577644172348914,4,S01,M,R,20,18,5,2,22,1
ChD_entr_4,5,4,true,22,1,Correct,0.462128786410212,5,S01,M,R,20,15,34,2,0,1
ChD_entr_4,5,4,true,23,0,Correct,0.625763664936454,6,S01,M,R,20,35,7,46,17,4
ChD_entr_4,5,4,true,24,0,Correct,0.587259674067637,5,S01,M,R,20,40,25,0,12,4
ChD_entr_4,5,4,true,25,0,Correct,0.404379797439308,4,S01,M,R,20,22,11,1,30,4
ChD_entr_4,5,4,true,26,1,Correct,0.500629022612507,5,S01,M,R,20,4,44,29,2,1
ChD_entr_4,5,4,true,27,0,Correct,0.539137450814114,5,S01,M,R,20,15,63,116,37,4
ChD_entr_4,5,4,true,28,0,Correct,0.414006563156234,5,S01,M,R,20,56,4,3,55,4
ChD_entr_4,5,4,true,29,1,Correct,0.539132672147962,4,S01,M,R,20,43,6,7,7,1
ChD_entr_4,5,4,true,30,0,Correct,0.510257494996241,4,S01,M,R,20,12,1,28,0,4
ChD_entr_4,5,4,true,31,0,Correct,0.616137923219158,5,S01,M,R,20,1,11,3,24,4
ChD_entr_4,5,4,true,32,1,Correct,0.799015751848227,4,S01,M,R,20,32,4,36,20,1
ChD_entr_4,5,4,true,33,0,Correct,0.577633932350341,6,S01,M,R,20,37,12,27,13,4
ChD_entr_4,5,4,true,34,0,Correct,0.558382790249564,4,S01,M,R,20,10,43,8,4,4
ChD_entr_4,5,4,true,35,0,Correct,0.529507271764027,5,S01,M,R,20,15,30,27,37,4
ChD_entr_4,5,4,true,36,0,Correct,0.635387358654036,6,S01,M,R,20,5,8,9,29,4
ChD_entr_4,5,4,true,37,0,Correct,0.42362786754074,4,S01,M,R,20,88,36,3,55,4
ChD_entr_4,5,4,true,38,1,Wrong,0.404429632097365,4,S01,M,R,20,67,15,31,83,2
ChD_entr_4,5,4,true,39,0,Correct,0.770151497361348,6,S01,M,R,20,4,2,19,0,4
ChD_entr_4,5,4,true,40,1,Correct,0.500631753278944,4,S01,M,R,20,16,41,0,10,1
ChD_entr_4,5,4,true,41,1,Wrong,0.596885074451573,6,S01,M,R,20,17,60,33,35,2
ChD_entr_4,5,4,true,42,1,Wrong,0.750890456594905,4,S01,M,R,20,5,6,52,9,2
ChD_entr_4,6,4,false,1,0,Correct,0.471753845460786,5,S01,M,R,20,26,26,0,0,4
ChD_entr_4,6,4,false,2,1,Correct,0.606508085502886,4,S01,M,R,20,2,2,24,24,1
ChD_entr_4,6,4,false,3,0,Correct,0.404377408106232,4,S01,M,R,20,16,16,10,10,4
ChD_entr_4,6,4,false,4,1,Wrong,0.827894000999747,4,S01,M,R,20,25,25,1,1,2
ChD_entr_4,6,4,false,5,0,Correct,0.99152375952693,5,S01,M,R,20,16,16,10,10,4
ChD_entr_4,6,4,false,6,1,Correct,0.51992999937225,4,S01,M,R,20,16,16,10,10,1
ChD_entr_4,6,4,false,7,1,Wrong,0.6739664428433,5,S01,M,R,20,13,13,13,13,2
ChD_entr_4,6,4,false,8,1,Correct,0.433306174582532,6,S01,M,R,20,20,20,6,6,1
ChD_entr_4,6,4,false,9,1,Correct,0.491002939562303,5,S01,M,R,20,26,26,0,0,1
ChD_entr_4,6,4,false,10,0,Correct,0.67388554685707,5,S01,M,R,20,26,26,0,0,4
ChD_entr_4,6,4,false,11,0,Correct,0.53913130681497,4,S01,M,R,20,7,7,19,19,4
ChD_entr_4,6,4,false,12,1,Correct,0.596888146450917,5,S01,M,R,20,2,2,24,24,1
ChD_entr_4,6,4,false,13,1,Correct,0.577633249684072,5,S01,M,R,20,17,17,9,9,1
ChD_entr_4,6,4,false,14,0,Correct,0.558380742249849,4,S01,M,R,20,8,8,18,18,4
ChD_entr_4,6,4,false,15,0,Correct,0.616216429872766,6,S01,M,R,20,1,1,25,25,4
ChD_entr_4,6,4,false,16,0,Correct,0.41400349115689,5,S01,M,R,20,14,14,12,12,4
ChD_entr_4,6,4,false,17,0,Correct,0.452532740687642,5,S01,M,R,20,22,22,4,4,4
ChD_entr_4,6,4,false,18,1,Wrong,1.26103565294384,6,S01,M,R,20,26,26,0,0,2
ChD_entr_4,6,4,false,19,1,Correct,0.375502913620779,4,S01,M,R,20,24,24,2,2,1
ChD_entr_4,6,4,false,20,0,Correct,0.49100328089521,6,S01,M,R,20,10,10,16,16,4
ChD_entr_4,6,4,false,21,0,Correct,0.46213254107628,4,S01,M,R,20,10,10,16,16,4
ChD_entr_4,6,4,false,22,0,Correct,0.375499500288073,5,S01,M,R,20,13,13,13,13,4
ChD_entr_4,6,4,false,23,0,Correct,0.779767340413433,5,S01,M,R,20,25,25,1,1,4
ChD_entr_4,6,4,false,24,1,Correct,0.375499841621435,6,S01,M,R,20,21,21,5,5,1
ChD_entr_4,6,4,false,25,1,Wrong,0.471752138794433,6,S01,M,R,20,7,7,19,19,2
ChD_entr_4,6,4,false,26,1,Wrong,0.423678726198882,5,S01,M,R,20,9,9,17,17,2
ChD_entr_4,6,4,false,27,0,Correct,0.51025510566362,6,S01,M,R,20,16,16,10,10,4
ChD_entr_4,6,4,false,28,1,Correct,0.414000760490452,4,S01,M,R,20,14,14,12,12,1
ChD_entr_4,6,4,false,29,0,Correct,0.404376725439508,6,S01,M,R,20,22,22,4,4,4
ChD_entr_4,6,4,false,30,0,Correct,0.38512524200537,4,S01,M,R,20,5,5,21,21,4
ChD_entr_4,6,4,false,31,0,Correct,0.346624664469259,6,S01,M,R,20,16,16,10,10,4
ChD_entr_4,6,4,false,32,1,Correct,0.414002125823898,4,S01,M,R,20,5,5,21,21,1
ChD_entr_4,6,4,false,33,1,Correct,0.645013441704694,5,S01,M,R,20,13,13,13,13,1
ChD_entr_4,6,4,false,34,1,Correct,0.645013783038056,4,S01,M,R,20,23,23,3,3,1
ChD_entr_4,6,4,false,35,0,Correct,0.519881530047185,6,S01,M,R,20,7,7,19,19,4
ChD_entr_4,6,4,false,36,0,Correct,0.346703853789591,6,S01,M,R,20,4,4,22,22,4
ChD_entr_4,6,4,false,37,0,Correct,0.394751325056028,4,S01,M,R,20,19,19,7,7,4
ChD_entr_4,6,4,false,38,1,Wrong,0.442877985642342,6,S01,M,R,20,3,3,23,23,2
ChD_entr_4,6,4,false,39,1,Wrong,0.462207975730089,5,S01,M,R,20,8,8,18,18,2
ChD_entr_4,6,4,false,40,0,Correct,0.433306857249255,4,S01,M,R,20,11,11,15,15,4
ChD_entr_4,6,4,false,41,1,Wrong,0.616135533886536,6,S01,M,R,20,17,17,9,9,2
ChD_entr_4,6,4,false,42,1,Correct,0.452502362026192,6,S01,M,R,20,4,4,22,22,1
ChD_entr_4,7,4,false,1,0,Correct,0.365874782570861,4,S01,M,R,20,26,26,0,0,4
ChD_entr_4,7,4,false,2,0,Correct,0.500629705279684,4,S01,M,R,20,13,13,13,13,4
ChD_entr_4,7,4,false,3,1,Wrong,0.491005328895379,5,S01,M,R,20,12,12,14,14,2
ChD_entr_4,7,4,false,4,0,Correct,0.462127421077221,5,S01,M,R,20,12,12,14,14,4
ChD_entr_4,7,4,false,5,0,Correct,0.529509319764196,6,S01,M,R,20,15,15,11,11,4
ChD_entr_4,7,4,false,6,0,Correct,0.433243369259918,6,S01,M,R,20,11,11,15,15,4
ChD_entr_4,7,4,false,7,0,Correct,0.654636111422192,4,S01,M,R,20,17,17,9,9,4
ChD_entr_4,7,4,false,8,1,Correct,0.943397098940616,4,S01,M,R,20,26,26,0,0,1
ChD_entr_4,7,4,false,9,0,Correct,0.500629363945868,6,S01,M,R,20,5,5,21,21,4
ChD_entr_4,7,4,false,10,0,Correct,0.491004646228656,4,S01,M,R,20,4,4,22,22,4
ChD_entr_4,7,4,false,11,1,Correct,0.77014228136286,5,S01,M,R,20,4,4,22,22,1
ChD_entr_4,7,4,false,12,1,Correct,0.635385651987683,4,S01,M,R,20,1,1,25,25,1
ChD_entr_4,7,4,false,13,1,Wrong,0.433253950591398,4,S01,M,R,20,12,12,14,14,2
ChD_entr_4,7,4,false,14,0,Correct,0.481380269844806,5,S01,M,R,20,18,18,8,8,4
ChD_entr_4,7,4,false,15,0,Correct,0.568009214633129,6,S01,M,R,20,19,19,7,7,4
ChD_entr_4,7,4,false,16,0,Correct,0.645042796366514,6,S01,M,R,20,11,11,15,15,4
ChD_entr_4,7,4,false,17,1,Wrong,0.654637818088545,6,S01,M,R,20,21,21,5,5,2
ChD_entr_4,7,4,false,18,0,Correct,0.8086438828986,6,S01,M,R,20,4,4,22,22,4
ChD_entr_4,7,4,false,19,1,Correct,1.0589022448812,5,S01,M,R,20,23,23,3,3,1
ChD_entr_4,7,4,false,20,0,Correct,0.568056318625203,6,S01,M,R,20,16,16,10,10,4
ChD_entr_4,7,4,false,21,1,Correct,0.452505775359353,5,S01,M,R,20,8,8,18,18,1
ChD_entr_4,7,4,false,22,0,Correct,0.510334636316403,5,S01,M,R,20,12,12,14,14,4
ChD_entr_4,7,4,false,23,1,Correct,1.010785824293,6,S01,M,R,20,10,10,16,16,1
ChD_entr_4,7,4,false,24,1,Wrong,0.577633591017434,6,S01,M,R,20,8,8,18,18,2
ChD_entr_4,7,4,false,25,0,Correct,0.596883026452313,5,S01,M,R,20,25,25,1,1,4
ChD_entr_4,7,4,false,26,0,Correct,1.65567741001808,5,S01,M,R,20,14,14,12,12,4
ChD_entr_4,7,4,false,27,1,Wrong,0.625761275603833,5,S01,M,R,20,23,23,3,3,2
ChD_entr_4,7,4,false,28,0,Wrong,1.17441182815412,5,S01,M,R,20,9,9,17,17,3
ChD_entr_4,7,4,false,29,1,Correct,0.702763454675229,4,S01,M,R,20,16,16,10,10,1
ChD_entr_4,7,4,false,30,0,Correct,0.471752821461156,4,S01,M,R,20,20,20,6,6,4
ChD_entr_4,7,4,false,31,1,Correct,0.577633932350795,6,S01,M,R,20,22,22,4,4,1
ChD_entr_4,7,4,false,32,1,Correct,0.799018823847572,5,S01,M,R,20,13,13,13,13,1
ChD_entr_4,7,4,false,33,0,Wrong,0.577633591017434,4,S01,M,R,20,7,7,19,19,3
ChD_entr_4,7,4,false,34,1,Wrong,1.07815270431571,6,S01,M,R,20,24,24,2,2,2
ChD_entr_4,7,4,false,35,1,Correct,0.847144119100894,4,S01,M,R,20,15,15,11,11,1
ChD_entr_4,7,4,false,36,0,Correct,0.693221680943961,5,S01,M,R,20,4,4,22,22,4
ChD_entr_4,7,4,false,37,1,Wrong,1.00115120791012,4,S01,M,R,20,9,9,17,17,2
ChD_entr_4,7,4,false,38,1,Wrong,0.548755683199275,6,S01,M,R,20,8,8,18,18,2
ChD_entr_4,7,4,false,39,1,Wrong,0.596884391785304,4,S01,M,R,20,2,2,24,24,2
ChD_entr_4,7,4,false,40,0,Correct,0.55838210758284,4,S01,M,R,20,17,17,9,9,4
ChD_entr_4,7,4,false,41,1,Correct,0.933775111889387,6,S01,M,R,20,10,10,16,16,1
ChD_entr_4,7,4,false,42,1,Wrong,0.491006011562102,5,S01,M,R,20,16,16,10,10,2
ChD_entr_4,8,4,true,1,1,Correct,0.491002939562303,4,S01,M,R,20,8,9,0,13,1
ChD_entr_4,8,4,true,2,0,Correct,0.471764085459359,5,S01,M,R,20,44,2,15,2,4
ChD_entr_4,8,4,true,3,0,Correct,0.52950693043112,6,S01,M,R,20,26,4,81,1,4
ChD_entr_4,8,4,true,4,1,Correct,0.481379245844721,5,S01,M,R,20,109,57,18,70,1
ChD_entr_4,8,4,true,5,0,Correct,0.491006011561648,6,S01,M,R,20,53,1,20,72,4
ChD_entr_4,8,4,true,6,1,Correct,0.539131648148332,4,S01,M,R,20,68,16,21,73,1
ChD_entr_4,8,4,true,7,1,Wrong,0.481376856511645,6,S01,M,R,20,38,21,104,14,2
ChD_entr_4,8,4,true,8,0,Correct,0.414001784490537,5,S01,M,R,20,13,23,13,39,4
ChD_entr_4,8,4,true,9,1,Correct,0.452500996693201,4,S01,M,R,20,7,1,10,7,1
ChD_entr_4,8,4,true,10,1,Correct,0.529502493098329,4,S01,M,R,20,6,71,66,14,1
ChD_entr_4,8,4,true,11,0,Correct,0.510255788329888,4,S01,M,R,20,13,12,6,39,4
ChD_entr_4,8,4,true,12,1,Wrong,0.645009004371903,5,S01,M,R,20,27,37,23,11,2
ChD_entr_4,8,4,true,13,1,Correct,0.577631543017719,5,S01,M,R,20,7,39,7,38,1
ChD_entr_4,8,4,true,14,1,Wrong,0.548756024532637,5,S01,M,R,20,26,10,5,26,2
ChD_entr_4,8,4,true,15,0,Correct,0.539131989481693,6,S01,M,R,20,4,9,8,17,4
ChD_entr_4,8,4,true,16,0,Correct,0.577633249684072,6,S01,M,R,20,3,94,69,14,4
ChD_entr_4,8,4,true,17,1,Wrong,0.510254422996896,4,S01,M,R,20,9,9,9,11,2
ChD_entr_4,8,4,true,18,0,Correct,1.15515624872055,4,S01,M,R,20,9,25,40,7,4
ChD_entr_4,8,4,true,19,1,Correct,0.664262877139573,5,S01,M,R,20,17,76,16,26,1
ChD_entr_4,8,4,true,20,0,Correct,0.481379245844721,4,S01,M,R,20,9,53,34,35,4
ChD_entr_4,8,4,true,21,0,Correct,0.683513336574082,5,S01,M,R,20,49,45,12,2,4
ChD_entr_4,8,4,true,22,1,Wrong,1.26103701827683,6,S01,M,R,20,19,26,1,33,2
ChD_entr_4,8,4,true,23,0,Correct,0.471870581440886,5,S01,M,R,20,56,4,11,63,4
ChD_entr_4,8,4,true,24,1,Wrong,0.616135192553174,6,S01,M,R,20,16,31,14,2,2
ChD_entr_4,8,4,true,25,0,Correct,0.491011472894069,4,S01,M,R,20,94,42,6,58,4
ChD_entr_4,8,4,true,26,0,Correct,0.587256602068293,5,S01,M,R,20,16,28,82,6,4
ChD_entr_4,8,4,true,27,0,Correct,0.529505565098128,6,S01,M,R,20,6,13,46,46,4
ChD_entr_4,8,4,true,28,0,Correct,0.462128786410212,6,S01,M,R,20,4,21,43,3,4
ChD_entr_4,8,4,true,29,0,Correct,0.606508768169609,5,S01,M,R,20,1,16,12,41,4
ChD_entr_4,8,4,true,30,1,Wrong,0.77014023336269,6,S01,M,R,20,13,27,0,30,2
ChD_entr_4,8,4,true,31,0,Correct,0.385126266005,6,S01,M,R,20,1,22,33,4,4
ChD_entr_4,8,4,true,32,1,Wrong,1.74230703747358,5,S01,M,R,20,2,1,29,39,2
ChD_entr_4,8,4,true,33,0,Timeout,NaN,5,S01,M,R,20,14,2,53,10,0
ChD_entr_4,8,4,true,34,1,Correct,0.596882343785589,4,S01,M,R,20,28,14,49,24,1
ChD_entr_4,8,4,true,35,0,Correct,0.673889301523138,4,S01,M,R,20,15,118,43,7,4
ChD_entr_4,8,4,true,36,0,Correct,0.866446119859813,4,S01,M,R,20,18,2,27,13,4
ChD_entr_4,8,4,true,37,1,Wrong,0.731638973160311,4,S01,M,R,20,3,3,0,49,2
ChD_entr_4,8,4,true,38,1,Correct,0.510260908329402,5,S01,M,R,20,92,40,88,140,1
ChD_entr_4,8,4,true,39,1,Wrong,0.625760934270471,6,S01,M,R,20,23,62,49,29,2
ChD_entr_4,8,4,true,40,1,Wrong,0.596881319785959,6,S01,M,R,20,7,18,29,40,2
ChD_entr_4,8,4,true,41,0,Correct,0.462132199742919,4,S01,M,R,20,18,1,70,34,4
ChD_entr_4,8,4,true,42,1,Correct,0.471753504127424,6,S01,M,R,20,6,3,4,14,1
ChD_entr_4,9,4,true,1,0,Correct,0.539134037481408,6,S01,M,R,20,1,21,0,8,4
ChD_entr_4,9,4,true,2,0,Correct,0.471754869460871,6,S01,M,R,20,27,43,6,25,4
ChD_entr_4,9,4,true,3,1,Wrong,0.587257284735016,4,S01,M,R,20,7,24,64,34,2
ChD_entr_4,9,4,true,4,1,Wrong,0.548760120532066,4,S01,M,R,20,1,64,21,15,2
ChD_entr_4,9,4,true,5,0,Correct,0.760516880978924,4,S01,M,R,20,81,29,7,59,4
ChD_entr_4,9,4,true,6,1,Correct,0.596887122451742,6,S01,M,R,20,108,56,18,70,1
ChD_entr_4,9,4,true,7,0,Correct,0.43325531592439,4,S01,M,R,20,21,4,1,31,4
ChD_entr_4,9,4,true,8,0,Wrong,1.36691710516638,5,S01,M,R,20,26,27,59,15,3
ChD_entr_4,9,4,true,9,0,Correct,0.510270124327436,5,S01,M,R,20,14,9,32,0,4
ChD_entr_4,9,4,true,10,0,Correct,0.442875254975904,5,S01,M,R,20,2,68,11,10,4
ChD_entr_4,9,4,true,11,1,Wrong,0.414003832489797,6,S01,M,R,20,6,14,13,4,2
ChD_entr_4,9,4,true,12,0,Correct,0.452501338026563,6,S01,M,R,20,7,25,48,26,4
ChD_entr_4,9,4,true,13,1,Correct,1.38616722326798,6,S01,M,R,20,19,11,3,15,1
ChD_entr_4,9,4,true,14,1,Correct,0.481380611177713,4,S01,M,R,20,26,48,67,3,1
ChD_entr_4,9,4,true,15,1,Wrong,0.885644355303643,5,S01,M,R,20,4,17,32,48,2
ChD_entr_4,9,4,true,16,0,Correct,0.423638790205582,4,S01,M,R,20,3,35,5,21,4
ChD_entr_4,9,4,true,17,1,Wrong,0.645012759037971,6,S01,M,R,20,8,20,4,5,2
ChD_entr_4,9,4,true,18,1,Wrong,0.539132672148417,6,S01,M,R,20,133,81,6,58,2
ChD_entr_4,9,4,true,19,0,Correct,0.693138395624655,6,S01,M,R,20,35,56,5,17,4
ChD_entr_4,9,4,true,20,0,Correct,0.741263008211255,4,S01,M,R,20,18,15,6,34,4
ChD_entr_4,9,4,true,21,1,Correct,0.500630729279314,5,S01,M,R,20,34,171,2,18,1
ChD_entr_4,9,4,true,22,0,Correct,0.625745574272838,4,S01,M,R,20,2,37,3,24,4
ChD_entr_4,9,4,true,23,0,Correct,0.442877985642342,4,S01,M,R,20,138,86,11,63,4
ChD_entr_4,9,4,true,24,1,Wrong,0.587264794067152,5,S01,M,R,20,3,3,2,49,2
ChD_entr_4,9,4,true,25,0,Correct,0.673887594856785,4,S01,M,R,20,2,28,9,49,4
ChD_entr_4,9,4,true,26,0,Correct,0.491002939562303,5,S01,M,R,20,1,10,2,7,4
ChD_entr_4,9,4,true,27,0,Correct,0.500634483944927,5,S01,M,R,20,9,3,21,43,4
ChD_entr_4,9,4,true,28,1,Correct,0.500631411946038,4,S01,M,R,20,8,11,130,14,1
ChD_entr_4,9,4,true,29,0,Correct,0.500627315946153,5,S01,M,R,20,6,57,66,19,4
ChD_entr_4,9,4,true,30,1,Correct,0.770139892029783,6,S01,M,R,20,36,18,73,14,1
ChD_entr_4,9,4,true,31,0,Correct,0.616188781877299,5,S01,M,R,20,15,13,9,22,4
ChD_entr_4,9,4,true,32,0,Correct,0.616135875219898,6,S01,M,R,20,17,22,18,14,4
ChD_entr_4,9,4,true,33,0,Correct,0.462129810409842,6,S01,M,R,20,9,26,2,43,4
ChD_entr_4,9,4,true,34,1,Correct,0.462131858409557,5,S01,M,R,20,2,13,16,35,1
ChD_entr_4,9,4,true,35,1,Wrong,0.760515515645478,4,S01,M,R,20,35,22,31,7,2
ChD_entr_4,9,4,true,36,1,Correct,0.933854301209263,5,S01,M,R,20,5,5,2,18,1
ChD_entr_4,9,4,true,37,1,Wrong,1.0877801526989,5,S01,M,R,20,55,3,46,98,2
ChD_entr_4,9,4,true,38,1,Wrong,0.587258991400914,6,S01,M,R,20,9,23,14,43,2
ChD_entr_4,9,4,true,39,1,Correct,0.596884050451943,4,S01,M,R,20,15,50,44,37,1
ChD_entr_4,9,4,true,40,0,Correct,0.606511157502231,6,S01,M,R,20,15,20,69,1,4
ChD_entr_4,9,4,true,41,1,Wrong,0.77976768174634,5,S01,M,R,20,14,88,9,1,2
ChD_entr_4,9,4,true,42,1,Wrong,0.539146666812603,4,S01,M,R,20,34,19,86,18,2
ChD_entr_4,10,4,false,1,0,Correct,0.433256339924475,6,S01,M,R,20,26,26,0,0,4
ChD_entr_4,10,4,false,2,1,Correct,0.423628550207463,4,S01,M,R,20,6,6,20,20,1
ChD_entr_4,10,4,false,3,1,Correct,0.596883367785219,5,S01,M,R,20,13,13,13,13,1
ChD_entr_4,10,4,false,4,1,Wrong,0.673888960189777,5,S01,M,R,20,2,2,24,24,2
ChD_entr_4,10,4,false,5,0,Correct,0.683511629907274,4,S01,M,R,20,9,9,17,17,4
ChD_entr_4,10,4,false,6,1,Correct,0.808643541565239,5,S01,M,R,20,15,15,11,11,1
ChD_entr_4,10,4,false,7,0,Correct,0.529510343763826,5,S01,M,R,20,8,8,18,18,4
ChD_entr_4,10,4,false,8,1,Wrong,0.52950590643149,5,S01,M,R,20,4,4,22,22,2
ChD_entr_4,10,4,false,9,1,Wrong,0.529506930430665,6,S01,M,R,20,26,26,0,0,2
ChD_entr_4,10,4,false,10,1,Correct,1.81930887521162,6,S01,M,R,20,22,22,4,4,1
ChD_entr_4,10,4,false,11,1,Correct,0.519929316705527,4,S01,M,R,20,14,14,12,12,1
ChD_entr_4,10,4,false,12,1,Correct,0.866398333201471,4,S01,M,R,20,11,11,15,15,1
ChD_entr_4,10,4,false,13,0,Correct,0.433333481244637,4,S01,M,R,20,24,24,2,2,4
ChD_entr_4,10,4,false,14,0,Correct,0.529506589097758,5,S01,M,R,20,4,4,22,22,4
ChD_entr_4,10,4,false,15,0,Correct,0.442879350975334,6,S01,M,R,20,26,26,0,0,4
ChD_entr_4,10,4,false,16,1,Wrong,0.442875596309266,5,S01,M,R,20,5,5,21,21,2
ChD_entr_4,10,4,false,17,0,Correct,0.356250406187011,4,S01,M,R,20,10,10,16,16,4
ChD_entr_4,10,4,false,18,0,Correct,0.471754528127509,4,S01,M,R,20,24,24,2,2,4
ChD_entr_4,10,4,false,19,1,Wrong,0.548757389865628,5,S01,M,R,20,26,26,0,0,2
ChD_entr_4,10,4,false,20,0,Correct,0.693137030291664,6,S01,M,R,20,20,20,6,6,4
ChD_entr_4,10,4,false,21,1,Correct,0.750892845927981,6,S01,M,R,20,25,25,1,1,1
ChD_entr_4,10,4,false,22,0,Correct,0.394752007722751,6,S01,M,R,20,24,24,2,2,4
ChD_entr_4,10,4,false,23,1,Correct,0.568007507966776,5,S01,M,R,20,8,8,18,18,1
ChD_entr_4,10,4,false,24,0,Correct,0.433252585258407,4,S01,M,R,20,26,26,0,0,4
ChD_entr_4,10,4,false,25,0,Correct,0.79901643451495,6,S01,M,R,20,6,6,20,20,4
ChD_entr_4,10,4,false,26,0,Wrong,0.991525807526644,5,S01,M,R,20,26,26,0,0,3
ChD_entr_4,10,4,false,27,0,Correct,0.847147532433601,4,S01,M,R,20,26,26,0,0,4
ChD_entr_4,10,4,false,28,0,Correct,0.799018482514665,5,S01,M,R,20,15,15,11,11,4
ChD_entr_4,10,4,false,29,1,Wrong,0.539131648148332,6,S01,M,R,20,9,9,17,17,2
ChD_entr_4,10,4,false,30,1,Correct,0.500631411945583,6,S01,M,R,20,4,4,22,22,1
ChD_entr_4,10,4,false,31,0,Correct,0.491008059561362,5,S01,M,R,20,3,3,23,23,4
ChD_entr_4,10,4,false,32,1,Correct,0.481379587178083,4,S01,M,R,20,3,3,23,23,1
ChD_entr_4,10,4,false,33,1,Wrong,0.635386334653951,6,S01,M,R,20,4,4,22,22,2
ChD_entr_4,10,4,false,34,1,Correct,0.471754528127054,6,S01,M,R,20,15,15,11,11,1
ChD_entr_4,10,4,false,35,0,Correct,0.423629232873732,5,S01,M,R,20,17,17,9,9,4
ChD_entr_4,10,4,false,36,1,Correct,0.587257967401739,4,S01,M,R,20,24,24,2,2,1
ChD_entr_4,10,4,false,37,0,Correct,0.413999395157915,6,S01,M,R,20,14,14,12,12,4
ChD_entr_4,10,4,false,38,0,Correct,0.452502703360009,5,S01,M,R,20,22,22,4,4,4
ChD_entr_4,10,4,false,39,0,Correct,0.7893920581311,6,S01,M,R,20,26,26,0,0,4
ChD_entr_4,10,4,false,40,0,Correct,0.577632908351165,4,S01,M,R,20,21,21,5,5,4
ChD_entr_4,10,4,false,41,1,Wrong,0.548755683199275,4,S01,M,R,20,12,12,14,14,2
ChD_entr_4,10,4,false,42,1,Correct,0.375547628279777,4,S01,M,R,20,6,6,20,20,1
ChD_entr_4,11,7,false,1,1,Wrong,0.423626843541565,6,S01,M,R,20,15,8,0,7,2
ChD_entr_4,11,7,false,2,0,Correct,0.471752138794433,5,S01,M,R,20,10,3,5,12,4
ChD_entr_4,11,7,false,3,0,Correct,0.481377197845006,5,S01,M,R,20,15,8,0,7,4
ChD_entr_4,11,7,false,4,0,Correct,0.866394578535403,6,S01,M,R,20,4,12,11,3,4
ChD_entr_4,11,7,false,5,1,Wrong,0.847144801767618,4,S01,M,R,20,13,6,2,9,2
ChD_entr_4,11,7,false,6,1,Correct,0.750892504594619,4,S01,M,R,20,9,2,6,13,1
ChD_entr_4,11,7,false,7,1,Wrong,0.606510133502146,5,S01,M,R,20,15,8,0,7,2
ChD_entr_4,11,7,false,8,0,Correct,0.529506247764397,5,S01,M,R,20,6,14,9,1,4
ChD_entr_4,11,7,false,9,1,Correct,0.58727503406527,4,S01,M,R,20,5,13,10,2,1
ChD_entr_4,11,7,false,10,0,Correct,0.442877302975619,4,S01,M,R,20,13,6,2,9,4
ChD_entr_4,11,7,false,11,1,Correct,0.54875875519862,5,S01,M,R,20,6,14,9,1,1
ChD_entr_4,11,7,false,12,0,Correct,0.423626502207749,5,S01,M,R,20,3,11,12,4,4
ChD_entr_4,11,7,false,13,0,Correct,1.36692051849954,5,S01,M,R,20,13,6,2,9,4
ChD_entr_4,11,7,false,14,0,Correct,0.423627184874472,5,S01,M,R,20,15,8,0,7,4
ChD_entr_4,11,7,false,15,0,Correct,0.500632094612306,4,S01,M,R,20,10,3,5,12,4
ChD_entr_4,11,7,false,16,1,Correct,0.404375018773155,4,S01,M,R,20,12,5,3,10,1
ChD_entr_4,11,7,false,17,1,Wrong,0.52950385843132,6,S01,M,R,20,9,2,6,13,2
ChD_entr_4,11,7,false,18,0,Correct,0.365877171903483,6,S01,M,R,20,8,1,7,14,4
ChD_entr_4,11,7,false,19,0,Correct,0.491018982226659,6,S01,M,R,20,9,2,6,13,4
ChD_entr_4,11,7,false,20,0,Correct,0.462128786410212,6,S01,M,R,20,12,5,3,10,4
ChD_entr_4,11,7,false,21,1,Correct,0.54883862718522,5,S01,M,R,20,3,11,12,4,1
ChD_entr_4,11,7,false,22,0,Correct,0.481395629841984,6,S01,M,R,20,15,8,0,7,4
ChD_entr_4,11,7,false,23,0,Correct,0.991525124859921,6,S01,M,R,20,4,12,11,3,4
ChD_entr_4,11,7,false,24,0,Correct,0.606514570834937,4,S01,M,R,20,15,8,0,7,4
ChD_entr_4,11,7,false,25,0,Correct,0.529511367763456,5,S01,M,R,20,6,14,9,1,4
ChD_entr_4,11,7,false,26,1,Correct,0.462129810409842,6,S01,M,R,20,5,13,10,2,1
ChD_entr_4,11,7,false,27,1,Wrong,0.433252926591769,5,S01,M,R,20,11,4,4,11,2
ChD_entr_4,11,7,false,28,1,Wrong,0.43325429192476,6,S01,M,R,20,5,13,10,2,2
ChD_entr_4,11,7,false,29,0,Correct,0.42362786754074,4,S01,M,R,20,14,7,1,8,4
ChD_entr_4,11,7,false,30,0,Correct,0.414084045809758,6,S01,M,R,20,9,2,6,13,4
ChD_entr_4,11,7,false,31,0,Correct,0.433267603922678,4,S01,M,R,20,5,13,10,2,4
ChD_entr_4,11,7,false,32,1,Wrong,1.07815475231542,5,S01,M,R,20,14,7,1,8,2
ChD_entr_4,11,7,false,33,1,Wrong,0.423625478208119,4,S01,M,R,20,1,9,14,6,2
ChD_entr_4,11,7,false,34,1,Correct,0.741266080211054,6,S01,M,R,20,11,4,4,11,1
ChD_entr_4,11,7,false,35,1,Correct,0.43325429192476,4,S01,M,R,20,3,11,12,4,1
ChD_entr_4,11,7,false,36,1,Wrong,0.64501036970535,5,S01,M,R,20,12,5,3,10,2
ChD_entr_4,11,7,false,37,1,Correct,0.510255105663165,4,S01,M,R,20,14,7,1,8,1
ChD_entr_4,11,7,false,38,1,Wrong,0.394752007722296,6,S01,M,R,20,15,8,0,7,2
ChD_entr_4,11,7,false,39,1,Correct,0.346625005803075,6,S01,M,R,20,13,6,2,9,1
ChD_entr_4,11,7,false,40,0,Correct,0.491021030225919,4,S01,M,R,20,1,9,14,6,4
ChD_entr_4,11,7,false,41,1,Correct,0.664263901139203,5,S01,M,R,20,4,12,11,3,1
ChD_entr_4,11,7,false,42,0,Correct,0.423627526207833,4,S01,M,R,20,4,12,11,3,4
ChD_entr_4,12,7,true,1,1,Correct,0.895273169020285,4,S01,M,R,20,53,1,0,52,1
ChD_entr_4,12,7,true,2,0,Correct,0.51025305766345,5,S01,M,R,20,6,5,53,17,4
ChD_entr_4,12,7,true,3,1,Wrong,0.558384496915917,6,S01,M,R,20,26,12,9,26,2
ChD_entr_4,12,7,true,4,1,Correct,0.356248358187296,5,S01,M,R,20,11,16,27,11,1
ChD_entr_4,12,7,true,5,0,Correct,0.664262877139573,5,S01,M,R,20,4,9,9,8,4
ChD_entr_4,12,7,true,6,0,Correct,0.452502362026192,5,S01,M,R,20,8,1,30,2,4
ChD_entr_4,12,7,true,7,0,Correct,0.76059368096527,4,S01,M,R,20,32,3,13,7,4
ChD_entr_4,12,7,true,8,0,Correct,0.491003963562388,5,S01,M,R,20,18,2,39,23,4
ChD_entr_4,12,7,true,9,0,Correct,0.433250537259147,4,S01,M,R,20,71,19,12,64,4
ChD_entr_4,12,7,true,10,1,Correct,0.529504882431405,5,S01,M,R,20,3,5,7,49,1
ChD_entr_4,12,7,true,11,1,Correct,0.596885074452027,4,S01,M,R,20,21,6,7,9,1
ChD_entr_4,12,7,true,12,0,Correct,0.731642386493472,5,S01,M,R,20,56,4,8,60,4
ChD_entr_4,12,7,true,13,0,Correct,1.10703095346723,5,S01,M,R,20,20,37,29,16,4
ChD_entr_4,12,7,true,14,0,Correct,0.645061911029305,6,S01,M,R,20,3,2,2,10,4
ChD_entr_4,12,7,true,15,1,Correct,0.471754528127054,5,S01,M,R,20,26,20,2,20,1
ChD_entr_4,12,7,true,16,1,Correct,0.837517012051061,6,S01,M,R,20,4,6,7,9,1
ChD_entr_4,12,7,true,17,0,Correct,0.47177057079141,4,S01,M,R,20,14,1,67,10,4
ChD_entr_4,12,7,true,18,0,Correct,0.414007587156319,6,S01,M,R,20,10,7,25,6,4
ChD_entr_4,12,7,true,19,1,Correct,0.693140102291009,5,S01,M,R,20,28,13,5,3,1
ChD_entr_4,12,7,true,20,1,Wrong,0.442876620308896,5,S01,M,R,20,31,32,0,21,2
ChD_entr_4,12,7,true,21,1,Correct,0.568007849300137,4,S01,M,R,20,20,4,1,32,1
ChD_entr_4,12,7,true,22,1,Wrong,0.712391585725147,6,S01,M,R,20,1,14,32,19,2
ChD_entr_4,12,7,true,23,1,Correct,0.722014938109822,6,S01,M,R,20,3,28,10,0,1
ChD_entr_4,12,7,true,24,0,Correct,0.510255105663165,4,S01,M,R,20,12,1,17,3,4
ChD_entr_4,12,7,true,25,0,Wrong,0.317748121984092,6,S01,M,R,20,8,6,21,1,3
ChD_entr_4,12,7,true,26,0,Wrong,0.683519821906133,6,S01,M,R,20,5,30,12,9,3
ChD_entr_4,12,7,true,27,1,Wrong,0.462129469076481,6,S01,M,R,20,5,18,8,4,2
ChD_entr_4,12,7,true,28,1,Correct,0.75088840859519,6,S01,M,R,20,27,6,6,2,1
ChD_entr_4,12,7,true,29,1,Correct,0.606510133502601,5,S01,M,R,20,4,15,19,12,1
ChD_entr_4,12,7,true,30,0,Correct,0.741269152210399,5,S01,M,R,20,3,8,6,10,4
ChD_entr_4,12,7,true,31,1,Wrong,0.491003622229026,4,S01,M,R,20,8,26,3,10,2
ChD_entr_4,12,7,true,32,1,Wrong,0.587261380734445,4,S01,M,R,20,28,4,13,24,2
ChD_entr_4,12,7,true,33,0,Correct,0.702776425339786,6,S01,M,R,20,6,8,3,24,4
ChD_entr_4,12,7,true,34,1,Correct,0.654637818088545,4,S01,M,R,20,10,22,0,7,1
ChD_entr_4,12,7,true,35,0,Correct,0.71239124439224,4,S01,M,R,20,21,5,2,5,4
ChD_entr_4,12,7,true,36,1,Correct,0.519884260713168,4,S01,M,R,20,9,10,8,17,1
ChD_entr_4,12,7,true,37,1,Wrong,0.519898938044077,6,S01,M,R,20,6,42,11,1,2
ChD_entr_4,12,7,true,38,0,Correct,0.596883709118581,6,S01,M,R,20,13,5,42,8,4
ChD_entr_4,12,7,true,39,0,Correct,0.712469409712487,4,S01,M,R,20,13,32,8,12,4
ChD_entr_4,12,7,true,40,0,Correct,0.779763927080727,4,S01,M,R,20,8,21,8,10,4
ChD_entr_4,12,7,true,41,0,Correct,0.741266762877323,6,S01,M,R,20,15,1,1,13,4
ChD_entr_4,12,7,true,42,1,Wrong,0.876020661586061,5,S01,M,R,20,19,44,81,2,2
ChD_entr_4,13,7,true,1,0,Correct,0.577633591017434,4,S01,M,R,20,14,16,0,24,4
ChD_entr_4,13,7,true,2,0,Correct,0.779766999080072,4,S01,M,R,20,2,44,3,16,4
ChD_entr_4,13,7,true,3,1,Correct,0.404375701440333,5,S01,M,R,20,13,22,12,14,1
ChD_entr_4,13,7,true,4,1,Correct,0.414017485821076,4,S01,M,R,20,12,35,27,26,1
ChD_entr_4,13,7,true,5,0,Correct,0.414003149823528,4,S01,M,R,20,28,9,10,19,4
ChD_entr_4,13,7,true,6,0,Wrong,0.519881188713823,6,S01,M,R,20,12,1,10,17,3
ChD_entr_4,13,7,true,7,0,Correct,0.414031821818625,5,S01,M,R,20,14,11,32,21,4
ChD_entr_4,13,7,true,8,0,Correct,0.365874441237499,4,S01,M,R,20,7,14,10,2,4
ChD_entr_4,13,7,true,9,0,Correct,0.500632435945213,6,S01,M,R,20,37,14,5,13,4
ChD_entr_4,13,7,true,10,1,Wrong,0.741266080210599,6,S01,M,R,20,13,4,1,0,2
ChD_entr_4,13,7,true,11,0,Correct,0.750891139261628,5,S01,M,R,20,19,47,8,8,4
ChD_entr_4,13,7,true,12,0,Correct,0.539148373478956,4,S01,M,R,20,14,9,4,6,4
ChD_entr_4,13,7,true,13,1,Correct,0.491003963562388,4,S01,M,R,20,9,23,3,6,1
ChD_entr_4,13,7,true,14,0,Correct,0.452503044692916,6,S01,M,R,20,15,1,2,1,4
ChD_entr_4,13,7,true,15,0,Correct,0.423630256874271,5,S01,M,R,20,59,7,12,64,4
ChD_entr_4,13,7,true,16,1,Wrong,0.394750642389305,5,S01,M,R,20,4,26,46,6,2
ChD_entr_4,13,7,true,17,1,Correct,0.722014596776461,5,S01,M,R,20,11,24,8,18,1
ChD_entr_4,13,7,true,18,1,Correct,0.462125714410413,4,S01,M,R,20,9,40,0,14,1
ChD_entr_4,13,7,true,19,0,Correct,0.539130965481609,6,S01,M,R,20,60,8,8,60,4
ChD_entr_4,13,7,true,20,0,Correct,0.471750773461441,5,S01,M,R,20,34,65,6,14,4
ChD_entr_4,13,7,true,21,1,Correct,0.462128103743944,6,S01,M,R,20,36,4,34,11,1
ChD_entr_4,13,7,true,22,1,Correct,0.471754869460871,5,S01,M,R,20,13,7,10,39,1
ChD_entr_4,13,7,true,23,0,Correct,0.442878326975249,6,S01,M,R,20,1,29,1,19,4
ChD_entr_4,13,7,true,24,0,Correct,0.462125714410868,6,S01,M,R,20,2,3,15,5,4
ChD_entr_4,13,7,true,25,1,Wrong,0.86639389586868,5,S01,M,R,20,8,8,37,1,2
ChD_entr_4,13,7,true,26,1,Correct,0.414002125823898,4,S01,M,R,20,2,15,8,20,1
ChD_entr_4,13,7,true,27,1,Wrong,0.664261853139488,6,S01,M,R,20,2,23,9,6,2
ChD_entr_4,13,7,true,28,1,Correct,0.404350442777488,6,S01,M,R,20,7,27,54,8,1
ChD_entr_4,13,7,true,29,1,Correct,0.385124900672008,6,S01,M,R,20,2,1,0,36,1
ChD_entr_4,13,7,true,30,0,Correct,0.394748935722952,5,S01,M,R,20,11,10,10,3,4
ChD_entr_4,13,7,true,31,0,Correct,0.471753845460786,4,S01,M,R,20,9,53,5,30,4
ChD_entr_4,13,7,true,32,1,Wrong,0.491004987562018,5,S01,M,R,20,2,6,1,1,2
ChD_entr_4,13,7,true,33,1,Wrong,0.375499158955166,5,S01,M,R,20,13,52,10,7,2
ChD_entr_4,13,7,true,34,1,Correct,0.414002125823443,6,S01,M,R,20,21,2,28,3,1
ChD_entr_4,13,7,true,35,1,Wrong,0.596883709118581,4,S01,M,R,20,23,3,1,0,2
ChD_entr_4,13,7,true,36,0,Correct,0.683595597893303,5,S01,M,R,20,18,19,5,34,4
ChD_entr_4,13,7,true,37,0,Correct,0.519881188713823,5,S01,M,R,20,30,9,7,11,4
ChD_entr_4,13,7,true,38,1,Wrong,0.365874441237499,4,S01,M,R,20,2,15,1,1,2
ChD_entr_4,13,7,true,39,1,Wrong,0.375498817621805,6,S01,M,R,20,11,5,3,15,2
ChD_entr_4,13,7,true,40,1,Wrong,0.414001443157175,4,S01,M,R,20,12,13,2,7,2
ChD_entr_4,13,7,true,41,0,Correct,0.481379928511444,4,S01,M,R,20,1,20,29,8,4
ChD_entr_4,13,7,true,42,0,Correct,0.452502020692831,6,S01,M,R,20,33,24,4,19,4
ChD_entr_4,14,7,true,1,0,Correct,0.375505302953856,5,S01,M,R,20,5,7,0,0,4
ChD_entr_4,14,7,true,2,1,Correct,0.491009424894809,5,S01,M,R,20,7,4,20,8,1
ChD_entr_4,14,7,true,3,1,Correct,0.616134168553544,5,S01,M,R,20,15,1,30,33,1
ChD_entr_4,14,7,true,4,1,Wrong,1.11665669518452,5,S01,M,R,20,23,36,41,29,2
ChD_entr_4,14,7,true,5,1,Wrong,0.645090583024856,6,S01,M,R,20,9,38,7,2,2
ChD_entr_4,14,7,true,6,0,Correct,0.924148687505367,6,S01,M,R,20,26,17,44,0,4
ChD_entr_4,14,7,true,7,0,Correct,0.414002467156805,4,S01,M,R,20,2,42,3,19,4
ChD_entr_4,14,7,true,8,0,Correct,0.702767550674658,6,S01,M,R,20,50,2,1,2,4
ChD_entr_4,14,7,true,9,0,Correct,0.750891139261628,5,S01,M,R,20,17,6,2,6,4
ChD_entr_4,14,7,true,10,0,Correct,0.625763323603093,6,S01,M,R,20,9,42,8,31,4
ChD_entr_4,14,7,true,11,1,Correct,0.529508637097018,4,S01,M,R,20,15,6,28,7,1
ChD_entr_4,14,7,true,12,0,Correct,0.414004856489881,4,S01,M,R,20,16,41,3,12,4
ChD_entr_4,14,7,true,13,1,Wrong,0.847159137765166,4,S01,M,R,20,12,6,25,40,2
ChD_entr_4,14,7,true,14,1,Wrong,0.414001101823813,6,S01,M,R,20,21,4,6,11,2
ChD_entr_4,14,7,true,15,1,Correct,0.40437604277324,4,S01,M,R,20,4,3,14,24,1
ChD_entr_4,14,7,true,16,1,Correct,0.683515043240435,6,S01,M,R,20,9,18,1,6,1
ChD_entr_4,14,7,true,17,0,Correct,0.375502913621234,4,S01,M,R,20,7,15,48,4,4
ChD_entr_4,14,7,true,18,1,Wrong,0.779768023080156,6,S01,M,R,20,15,13,3,8,2
ChD_entr_4,14,7,true,19,1,Correct,0.491003280895665,4,S01,M,R,20,5,23,47,6,1
ChD_entr_4,14,7,true,20,1,Wrong,0.481376515178738,4,S01,M,R,20,1,5,7,0,2
ChD_entr_4,14,7,true,21,1,Correct,0.818266552616552,5,S01,M,R,20,15,9,9,5,1
ChD_entr_4,14,7,true,22,1,Wrong,0.635385993321045,5,S01,M,R,20,1,26,5,7,2
ChD_entr_4,14,7,true,23,1,Wrong,0.471751797461071,6,S01,M,R,20,6,12,2,3,2
ChD_entr_4,14,7,true,24,0,Correct,0.414001443157175,5,S01,M,R,20,51,10,2,1,4
ChD_entr_4,14,7,true,25,0,Correct,0.471754528127509,5,S01,M,R,20,16,14,8,3,4
ChD_entr_4,14,7,true,26,0,Correct,0.385126607338361,6,S01,M,R,20,19,42,23,13,4
ChD_entr_4,14,7,true,27,0,Correct,0.346624323136352,4,S01,M,R,20,34,17,7,18,4
ChD_entr_4,14,7,true,28,1,Correct,0.529486450434428,4,S01,M,R,20,17,3,3,5,1
ChD_entr_4,14,7,true,29,1,Correct,0.664265949138918,5,S01,M,R,20,11,9,9,0,1
ChD_entr_4,14,7,true,30,0,Correct,0.452485636696023,5,S01,M,R,20,4,5,3,6,4
ChD_entr_4,14,7,true,31,0,Correct,0.56800955596649,5,S01,M,R,20,20,21,12,32,4
ChD_entr_4,14,7,true,32,1,Wrong,0.423627526207833,5,S01,M,R,20,40,10,1,12,2
ChD_entr_4,14,7,true,33,0,Correct,0.365890825234762,6,S01,M,R,20,8,7,8,3,4
ChD_entr_4,14,7,true,34,0,Correct,0.452503727359184,6,S01,M,R,20,43,3,19,8,4
ChD_entr_4,14,7,true,35,1,Wrong,0.414009293822672,6,S01,M,R,20,13,2,18,8,2
ChD_entr_4,14,7,true,36,1,Correct,0.471754869460871,4,S01,M,R,20,37,17,27,15,1
ChD_entr_4,14,7,true,37,0,Correct,0.356249723520287,4,S01,M,R,20,22,10,16,11,4
ChD_entr_4,14,7,true,38,0,Correct,0.423626502208203,6,S01,M,R,20,73,21,11,63,4
ChD_entr_4,14,7,true,39,1,Correct,0.616133485886821,6,S01,M,R,20,35,14,0,17,1
ChD_entr_4,14,7,true,40,0,Correct,0.404378773439223,4,S01,M,R,20,17,1,2,0,4
ChD_entr_4,14,7,true,41,0,Correct,0.346624323136352,4,S01,M,R,20,33,4,1,1,4
ChD_entr_4,14,7,true,42,0,Correct,0.365873417237415,5,S01,M,R,20,18,19,10,34,4
ChD_entr_4,15,0,true,1,0,Correct,0.385126948671723,5,S01,M,R,20,1,1,0,0,4
ChD_entr_4,15,0,true,2,0,Correct,0.625761275603833,5,S01,M,R,20,1,1,0,0,4
ChD_entr_4,15,0,true,3,0,Correct,0.481378563177998,6,S01,M,R,20,1,1,0,0,4
ChD_entr_4,15,0,true,4,1,Correct,0.548755683199275,5,S01,M,R,20,1,1,0,0,1
ChD_entr_4,15,0,true,5,1,Wrong,0.327422674359816,4,S01,M,R,20,1,1,0,0,2
ChD_entr_4,15,0,true,6,1,Wrong,0.471754528127054,5,S01,M,R,20,1,1,0,0,2
ChD_entr_4,15,0,true,7,0,Correct,0.500630387945953,6,S01,M,R,20,1,1,0,0,4
ChD_entr_4,15,0,true,8,1,Correct,0.673887594856785,6,S01,M,R,20,1,1,0,0,1
ChD_entr_4,15,0,true,9,0,Correct,0.471754869460416,4,S01,M,R,20,1,1,0,0,4
ChD_entr_4,15,0,true,10,1,Wrong,0.462135271742263,4,S01,M,R,20,1,1,0,0,2
ChD_entr_4,15,0,true,11,0,Correct,0.442877302976074,6,S01,M,R,20,1,1,0,0,4
ChD_entr_4,15,0,true,12,0,Correct,0.481380952511529,6,S01,M,R,20,1,1,0,0,4
ChD_entr_4,15,0,true,13,0,Correct,0.394751666388935,4,S01,M,R,20,1,1,0,0,4
ChD_entr_4,15,0,true,14,1,Wrong,0.93377272255631,5,S01,M,R,20,1,1,0,0,2
ChD_entr_4,15,0,true,15,1,Correct,0.683513677907443,5,S01,M,R,20,1,1,0,0,1
ChD_entr_4,15,0,true,16,0,Correct,0.712388855059164,5,S01,M,R,20,1,1,0,0,4
ChD_entr_4,15,0,true,17,0,Correct,0.760522683644252,6,S01,M,R,20,1,1,0,0,4
ChD_entr_4,15,0,true,18,1,Correct,0.606511498835592,6,S01,M,R,20,1,1,0,0,1
ChD_entr_4,15,0,true,19,0,Correct,0.500630387945953,6,S01,M,R,20,1,1,0,0,4
ChD_entr_4,15,0,true,20,1,Correct,0.568010579966575,4,S01,M,R,20,1,1,0,0,1
ChD_entr_4,15,0,true,21,1,Wrong,0.635385310654321,6,S01,M,R,20,1,1,0,0,2
ChD_entr_4,15,0,true,22,0,Correct,0.404375701439878,5,S01,M,R,20,1,1,0,0,4
ChD_entr_4,15,0,true,23,1,Correct,0.481378221845091,4,S01,M,R,20,1,1,0,0,1
ChD_entr_4,15,0,true,24,1,Correct,1.04927820983026,6,S01,M,R,20,1,1,0,0,1
ChD_entr_4,15,0,true,25,0,Correct,0.462128786410212,4,S01,M,R,20,1,1,0,0,4
ChD_entr_4,15,0,true,26,1,Wrong,0.712386465726543,6,S01,M,R,20,1,1,0,0,2
ChD_entr_4,15,0,true,27,0,Correct,0.70276584400785,4,S01,M,R,20,1,1,0,0,4
ChD_entr_4,15,0,true,28,1,Wrong,0.635434121312749,5,S01,M,R,20,1,1,0,0,2
ChD_entr_4,15,0,true,29,0,Correct,0.683511288574367,6,S01,M,R,20,1,1,0,0,4
ChD_entr_4,15,0,true,30,0,Correct,0.491009083561447,4,S01,M,R,20,1,1,0,0,4
ChD_entr_4,15,0,true,31,0,Correct,0.548760803198335,5,S01,M,R,20,1,1,0,0,4
ChD_entr_4,15,0,true,32,1,Correct,0.539132672147962,6,S01,M,R,20,1,1,0,0,1
ChD_entr_4,15,0,true,33,1,Wrong,0.38512524200537,4,S01,M,R,20,1,1,0,0,2
ChD_entr_4,15,0,true,34,0,Correct,0.654637818088545,4,S01,M,R,20,1,1,0,0,4
ChD_entr_4,15,0,true,35,1,Correct,0.462180669067984,6,S01,M,R,20,1,1,0,0,1
ChD_entr_4,15,0,true,36,1,Correct,0.42362684354111,4,S01,M,R,20,1,1,0,0,1
ChD_entr_4,15,0,true,37,1,Correct,0.702768574674288,5,S01,M,R,20,1,1,0,0,1
ChD_entr_4,15,0,true,38,0,Correct,0.42362581954148,5,S01,M,R,20,1,1,0,0,4
ChD_entr_4,15,0,true,39,0,Correct,0.596885757118296,4,S01,M,R,20,1,1,0,0,4
ChD_entr_4,15,0,true,40,1,Wrong,0.539132330815055,4,S01,M,R,20,1,1,0,0,2
ChD_entr_4,15,0,true,41,1,Correct,0.481379587178083,5,S01,M,R,20,1,1,0,0,1
ChD_entr_4,15,0,true,42,0,Correct,0.519881530047185,5,S01,M,R,20,1,1,0,0,4
ChD_entr_4,1,7,true,1,1,Wrong,1.91285525968,5,S02,F,R,26,1,1,0,7,2
ChD_entr_4,1,7,true,2,1,Correct,1.11350720623239,6,S02,F,R,26,3,1,24,12,1
ChD_entr_4,1,7,true,3,0,Wrong,0.837522562133308,5,S02,F,R,26,42,45,15,5,3
ChD_entr_4,1,7,true,4,0,Timeout,NaN,4,S02,F,R,26,23,6,6,7,0
ChD_entr_4,1,7,true,5,1,Timeout,NaN,5,S02,F,R,26,12,13,14,17,0
ChD_entr_4,1,7,true,6,0,Timeout,NaN,5,S02,F,R,26,23,16,12,2,0
ChD_entr_4,1,7,true,7,1,Correct,0.199947605342859,4,S02,F,R,26,13,16,13,0,1
ChD_entr_4,1,7,true,8,1,Wrong,0.951719090910956,6,S02,F,R,26,17,26,12,15,2
ChD_entr_4,1,7,true,9,1,Correct,1.25622905920907,4,S02,F,R,26,48,5,10,4,1
ChD_entr_4,1,7,true,10,1,Wrong,0.961312979406684,4,S02,F,R,26,2,5,36,19,2
ChD_entr_4,1,7,true,11,1,Wrong,1.04687666400368,6,S02,F,R,26,5,3,24,18,2
ChD_entr_4,1,7,true,12,1,Wrong,0.904133307031589,5,S02,F,R,26,25,14,8,28,2
ChD_entr_4,1,7,true,13,1,Correct,0.913655856872938,6,S02,F,R,26,11,13,3,18,1
ChD_entr_4,1,7,true,14,0,Correct,1.19913369615246,6,S02,F,R,26,6,20,1,10,4
ChD_entr_4,1,7,true,15,1,Correct,1.36090849947734,5,S02,F,R,26,6,3,10,10,1
ChD_entr_4,1,7,true,16,0,Correct,0.913652443540232,4,S02,F,R,26,15,5,37,3,4
ChD_entr_4,1,7,true,17,0,Correct,0.932683889892105,6,S02,F,R,26,19,5,21,14,4
ChD_entr_4,1,7,true,18,1,Correct,0.913653808873678,4,S02,F,R,26,31,9,66,3,1
ChD_entr_4,1,7,true,19,0,Correct,1.11348945690213,5,S02,F,R,26,6,4,2,16,4
ChD_entr_4,1,7,true,20,1,Correct,1.17058720929137,4,S02,F,R,26,13,1,7,29,1
ChD_entr_4,1,7,true,21,0,Wrong,0.818490433114712,4,S02,F,R,26,11,17,17,16,3
ChD_entr_4,1,7,true,22,1,Correct,0.875587161502954,6,S02,F,R,26,13,17,46,8,1
ChD_entr_4,1,7,true,23,1,Correct,1.18010156713386,6,S02,F,R,26,2,117,3,3,1
ChD_entr_4,1,7,true,24,1,Correct,1.31332920093093,5,S02,F,R,26,1,12,5,33,1
ChD_entr_4,1,7,true,25,0,Wrong,0.85655366715182,6,S02,F,R,26,51,20,16,2,3
ChD_entr_4,1,7,true,26,1,Correct,0.913653467540316,4,S02,F,R,26,47,40,2,6,1
ChD_entr_4,1,7,true,27,0,Correct,1.23720000218982,6,S02,F,R,26,1,17,29,4,4
ChD_entr_4,1,7,true,28,1,Correct,1.2847847620691,6,S02,F,R,26,34,8,11,0,1
ChD_entr_4,1,7,true,29,0,Timeout,NaN,6,S02,F,R,26,2,11,6,33,0
ChD_entr_4,1,7,true,30,0,Timeout,NaN,6,S02,F,R,26,2,7,5,0,0
ChD_entr_4,1,7,true,31,0,Wrong,1.06590879302319,4,S02,F,R,26,7,8,3,1,3
ChD_entr_4,1,7,true,32,1,Correct,0.894624410521064,5,S02,F,R,26,8,17,1,0,1
ChD_entr_4,1,7,true,33,0,Wrong,1.03736128216111,4,S02,F,R,26,17,10,5,2,3
ChD_entr_4,1,7,true,34,0,Correct,0.96123413141926,4,S02,F,R,26,7,3,0,13,4
ChD_entr_4,1,7,true,35,0,Correct,0.923169532049615,5,S02,F,R,26,15,27,29,38,4
ChD_entr_4,1,7,true,36,1,Timeout,NaN,5,S02,F,R,26,26,7,3,5,0
ChD_entr_4,1,7,true,37,0,Correct,1.02785102031805,5,S02,F,R,26,3,22,7,0,4
ChD_entr_4,1,7,true,38,0,Correct,1.30380938175556,5,S02,F,R,26,1,3,9,0,4
ChD_entr_4,1,7,true,39,0,Timeout,NaN,4,S02,F,R,26,10,11,3,9,0
ChD_entr_4,1,7,true,40,1,Correct,1.1991350614859,4,S02,F,R,26,51,23,3,0,1
ChD_entr_4,1,7,true,41,0,Wrong,0.742364306372947,5,S02,F,R,26,19,16,20,9,3
ChD_entr_4,1,7,true,42,0,Correct,0.885103908679885,6,S02,F,R,26,13,10,23,37,4
ChD_entr_4,2,7,false,1,0,Correct,0.885103226013161,4,S02,F,R,26,15,7,0,8,4
ChD_entr_4,2,7,false,2,0,Correct,1.25623213120842,4,S02,F,R,26,3,10,12,5,4
ChD_entr_4,2,7,false,3,0,Correct,0.694788421159246,6,S02,F,R,26,12,4,3,11,4
ChD_entr_4,2,7,false,4,0,Correct,0.609138720576047,5,S02,F,R,26,5,12,10,3,4
ChD_entr_4,2,7,false,5,1,Correct,0.875586137503778,6,S02,F,R,26,7,14,8,1,1
ChD_entr_4,2,7,false,6,1,Correct,1.30381006442138,4,S02,F,R,26,11,3,4,12,1
ChD_entr_4,2,7,false,7,0,Wrong,1.55122842433077,5,S02,F,R,26,15,7,0,8,3
ChD_entr_4,2,7,false,8,1,Correct,1.24673142669675,5,S02,F,R,26,8,15,7,0,1
ChD_entr_4,2,7,false,9,1,Correct,1.0183431478067,4,S02,F,R,26,3,10,12,5,1
ChD_entr_4,2,7,false,10,0,Wrong,0.751879005548799,6,S02,F,R,26,7,14,8,1,3
ChD_entr_4,2,7,false,11,0,Correct,0.875585113503694,4,S02,F,R,26,9,1,6,14,4
ChD_entr_4,2,7,false,12,0,Correct,0.828005473623925,5,S02,F,R,26,13,5,2,10,4
ChD_entr_4,2,7,false,13,1,Correct,1.23719897818974,5,S02,F,R,26,7,14,8,1,1
ChD_entr_4,2,7,false,14,1,Wrong,0.970749854596106,5,S02,F,R,26,3,10,12,5,2
ChD_entr_4,2,7,false,15,1,Correct,0.8755885268364,4,S02,F,R,26,12,4,3,11,1
ChD_entr_4,2,7,false,16,1,Correct,0.980264553771958,6,S02,F,R,26,1,8,14,7,1
ChD_entr_4,2,7,false,17,1,Correct,0.92316850804953,6,S02,F,R,26,9,1,6,14,1
ChD_entr_4,2,7,false,18,0,Correct,1.13252226858745,6,S02,F,R,26,8,15,7,0,4
ChD_entr_4,2,7,false,19,1,Wrong,1.09445630388436,6,S02,F,R,26,15,7,0,8,2
ChD_entr_4,2,7,false,20,0,Wrong,0.828006838956462,6,S02,F,R,26,11,3,4,12,3
ChD_entr_4,2,7,false,21,1,Correct,1.47510024958883,4,S02,F,R,26,5,12,10,3,1
ChD_entr_4,2,7,false,22,0,Correct,0.86607212099465,5,S02,F,R,26,6,13,9,2,4
ChD_entr_4,2,7,false,23,1,Correct,1.26574887838444,6,S02,F,R,26,11,3,4,12,1
ChD_entr_4,2,7,false,24,0,Correct,0.837521538133224,4,S02,F,R,26,4,11,11,4,4
ChD_entr_4,2,7,false,25,0,Correct,0.90413569636421,5,S02,F,R,26,12,4,3,11,4
ChD_entr_4,2,7,false,26,1,Correct,0.751958194868675,5,S02,F,R,26,13,5,2,10,1
ChD_entr_4,2,7,false,27,1,Correct,1.03736298882701,4,S02,F,R,26,15,7,0,8,1
ChD_entr_4,2,7,false,28,0,Wrong,0.761395070058097,4,S02,F,R,26,2,9,13,6,3
ChD_entr_4,2,7,false,29,1,Correct,0.847040674641867,5,S02,F,R,26,3,10,12,5,1
ChD_entr_4,2,7,false,30,0,Correct,1.06590742768974,4,S02,F,R,26,10,2,5,13,4
ChD_entr_4,2,7,false,31,0,Correct,1.0564012618452,6,S02,F,R,26,9,1,6,14,4
ChD_entr_4,2,7,false,32,0,Correct,0.942200978402398,4,S02,F,R,26,9,1,6,14,4
ChD_entr_4,2,7,false,33,1,Correct,0.533013617834367,6,S02,F,R,26,6,13,9,2,1
ChD_entr_4,2,7,false,34,1,Correct,0.989780959614618,5,S02,F,R,26,1,8,14,7,1
ChD_entr_4,2,7,false,35,0,Wrong,0.694782959826371,6,S02,F,R,26,8,15,7,0,3
ChD_entr_4,2,7,false,36,0,Correct,1.01832915314342,6,S02,F,R,26,1,8,14,7,4
ChD_entr_4,2,7,false,37,0,Correct,1.45606982723704,5,S02,F,R,26,5,12,10,3,4
ChD_entr_4,2,7,false,38,1,Correct,0.81849418778078,4,S02,F,R,26,8,15,7,0,1
ChD_entr_4,2,7,false,39,0,Correct,0.761396435391543,5,S02,F,R,26,3,10,12,5,4
ChD_entr_4,2,7,false,40,1,Wrong,0.856556056484442,6,S02,F,R,26,4,11,11,4,2
ChD_entr_4,2,7,false,41,1,Correct,0.770910451900672,4,S02,F,R,26,10,2,5,13,1
ChD_entr_4,2,7,false,42,1,Correct,1.18010224980149,5,S02,F,R,26,10,2,5,13,1
ChD_entr_4,3,4,false,1,0,Correct,1.065909475689,4,S02,F,R,26,26,25,0,1,4
ChD_entr_4,3,4,false,2,0,Correct,0.732849265862824,6,S02,F,R,26,14,13,12,13,4
ChD_entr_4,3,4,false,3,1,Correct,1.37993755649659,6,S02,F,R,26,11,10,15,16,1
ChD_entr_4,3,4,false,4,1,Correct,1.07542315086477,5,S02,F,R,26,18,17,8,9,1
ChD_entr_4,3,4,false,5,0,Correct,0.770990665220634,5,S02,F,R,26,5,4,21,22,4
ChD_entr_4,3,4,false,6,0,Correct,0.875595694835174,4,S02,F,R,26,24,23,2,3,4
ChD_entr_4,3,4,false,7,1,Correct,1.1991350614859,6,S02,F,R,26,6,5,20,21,1
ChD_entr_4,3,4,false,8,1,Correct,0.904132965698227,4,S02,F,R,26,6,5,20,21,1
ChD_entr_4,3,4,false,9,0,Correct,0.76139575272573,4,S02,F,R,26,11,10,15,16,4
ChD_entr_4,3,4,false,10,0,Correct,1.45606914457032,6,S02,F,R,26,5,4,21,22,4
ChD_entr_4,3,4,false,11,0,Wrong,0.81849213978152,4,S02,F,R,26,4,3,22,23,3
ChD_entr_4,3,4,false,12,0,Correct,0.97074848926266,4,S02,F,R,26,18,17,8,9,4
ChD_entr_4,3,4,false,13,1,Correct,0.875588868169761,6,S02,F,R,26,16,15,10,11,1
ChD_entr_4,3,4,false,14,0,Correct,0.913652443540232,5,S02,F,R,26,24,23,2,3,4
ChD_entr_4,3,4,false,15,1,Correct,0.923166118716908,4,S02,F,R,26,2,1,24,25,1
ChD_entr_4,3,4,false,16,1,Correct,0.904138427031103,5,S02,F,R,26,5,4,21,22,1
ChD_entr_4,3,4,false,17,1,Correct,0.885105274012421,4,S02,F,R,26,10,9,16,17,1
ChD_entr_4,3,4,false,18,1,Correct,0.980266943105489,5,S02,F,R,26,17,16,9,10,1
ChD_entr_4,3,4,false,19,1,Correct,0.780474644402129,6,S02,F,R,26,14,13,12,13,1
ChD_entr_4,3,4,false,20,0,Correct,0.837521538133224,6,S02,F,R,26,6,5,20,21,4
ChD_entr_4,3,4,false,21,0,Correct,1.28477964206959,4,S02,F,R,26,18,17,8,9,4
ChD_entr_4,3,4,false,22,1,Correct,0.837524268799207,4,S02,F,R,26,9,8,17,18,1
ChD_entr_4,3,4,false,23,1,Correct,0.808975392605498,6,S02,F,R,26,21,20,5,6,1
ChD_entr_4,3,4,false,24,0,Correct,1.37042353998746,5,S02,F,R,26,10,9,16,17,4
ChD_entr_4,3,4,false,25,1,Correct,0.770913523900926,5,S02,F,R,26,18,17,8,9,1
ChD_entr_4,3,4,false,26,0,Correct,1.00881138196732,6,S02,F,R,26,11,10,15,16,4
ChD_entr_4,3,4,false,27,0,Correct,0.81856996376795,5,S02,F,R,26,5,4,21,22,4
ChD_entr_4,3,4,false,28,1,Correct,0.761396435391543,4,S02,F,R,26,19,18,7,8,1
ChD_entr_4,3,4,false,29,0,Correct,0.828008545624179,4,S02,F,R,26,13,12,13,14,4
ChD_entr_4,3,4,false,30,1,Correct,0.904140133697911,4,S02,F,R,26,26,25,0,1,1
ChD_entr_4,3,4,false,31,0,Correct,0.866071438327017,6,S02,F,R,26,5,4,21,22,4
ChD_entr_4,3,4,false,32,1,Wrong,1.26575058505034,6,S02,F,R,26,14,13,12,13,2
ChD_entr_4,3,4,false,33,0,Wrong,0.951717042911696,5,S02,F,R,26,7,6,19,20,3
ChD_entr_4,3,4,false,34,1,Correct,0.856604867142414,4,S02,F,R,26,7,6,19,20,1
ChD_entr_4,3,4,false,35,0,Correct,1.13252226858745,5,S02,F,R,26,17,16,9,10,4
ChD_entr_4,3,4,false,36,1,Wrong,0.83752495146593,5,S02,F,R,26,24,23,2,3,2
ChD_entr_4,3,4,false,37,1,Correct,0.942199954401403,6,S02,F,R,26,10,9,16,17,1
ChD_entr_4,3,4,false,38,1,Wrong,1.01832812914334,5,S02,F,R,26,11,10,15,16,2
ChD_entr_4,3,4,false,39,0,Correct,0.799458986762838,6,S02,F,R,26,4,3,22,23,4
ChD_entr_4,3,4,false,40,0,Correct,0.856556397817803,5,S02,F,R,26,20,19,6,7,4
ChD_entr_4,3,4,false,41,0,Correct,0.837524268800116,6,S02,F,R,26,4,3,22,23,4
ChD_entr_4,3,4,false,42,1,Correct,0.828007521624095,5,S02,F,R,26,16,15,10,11,1
ChD_entr_4,4,4,false,1,1,Correct,0.970749854596106,4,S02,F,R,26,26,25,0,1,1
ChD_entr_4,4,4,false,2,0,Correct,0.894622021188443,4,S02,F,R,26,24,23,2,3,4
ChD_entr_4,4,4,false,3,1,Wrong,1.03735855149513,4,S02,F,R,26,4,3,22,23,2
ChD_entr_4,4,4,false,4,0,Correct,1.30381450175417,4,S02,F,R,26,21,20,5,6,4
ChD_entr_4,4,4,false,5,1,Correct,0.789940874253371,4,S02,F,R,26,10,9,16,17,1
ChD_entr_4,4,4,false,6,1,Wrong,0.751880712215607,5,S02,F,R,26,1,26,25,0,2
ChD_entr_4,4,4,false,7,0,Correct,1.19913574415263,6,S02,F,R,26,22,21,4,5,4
ChD_entr_4,4,4,false,8,0,Wrong,0.932689009892529,5,S02,F,R,26,22,21,4,5,3
ChD_entr_4,4,4,false,9,1,Correct,0.961233790086808,6,S02,F,R,26,24,23,2,3,1
ChD_entr_4,4,4,false,10,0,Correct,0.808977440604758,5,S02,F,R,26,23,22,3,4,4
ChD_entr_4,4,4,false,11,1,Correct,0.90413774436438,4,S02,F,R,26,12,11,14,15,1
ChD_entr_4,4,4,false,12,0,Correct,0.875587502836315,4,S02,F,R,26,17,16,9,10,4
ChD_entr_4,4,4,false,13,0,Correct,1.5131648489603,6,S02,F,R,26,25,24,1,2,4
ChD_entr_4,4,4,false,14,0,Wrong,0.732847900530287,4,S02,F,R,26,18,17,8,9,3
ChD_entr_4,4,4,false,15,1,Correct,0.847041698641951,6,S02,F,R,26,15,14,11,12,1
ChD_entr_4,4,4,false,16,0,Correct,1.16107251011461,6,S02,F,R,26,26,25,0,1,4
ChD_entr_4,4,4,false,17,1,Correct,0.875597742835343,5,S02,F,R,26,4,3,22,23,1
ChD_entr_4,4,4,false,18,0,Correct,1.37042592932008,4,S02,F,R,26,12,11,14,15,4
ChD_entr_4,4,4,false,19,0,Correct,1.17058379595866,6,S02,F,R,26,20,19,6,7,4
ChD_entr_4,4,4,false,20,0,Correct,1.06590776902311,5,S02,F,R,26,23,22,3,4,4
ChD_entr_4,4,4,false,21,1,Correct,0.913653467540316,4,S02,F,R,26,11,10,15,16,1
ChD_entr_4,4,4,false,22,1,Correct,1.66542392910833,6,S02,F,R,26,15,14,11,12,1
ChD_entr_4,4,4,false,23,0,Correct,1.7700972253779,5,S02,F,R,26,18,17,8,9,4
ChD_entr_4,4,4,false,24,0,Correct,1.15155439760605,6,S02,F,R,26,10,9,16,17,4
ChD_entr_4,4,4,false,25,0,Correct,1.00881342996658,5,S02,F,R,26,15,14,11,12,4
ChD_entr_4,4,4,false,26,1,Wrong,0.751879688215522,6,S02,F,R,26,9,8,17,18,2
ChD_entr_4,4,4,false,27,1,Correct,0.770910451901582,6,S02,F,R,26,4,3,22,23,1
ChD_entr_4,4,4,false,28,1,Correct,1.42751856170889,5,S02,F,R,26,23,22,3,4,1
ChD_entr_4,4,4,false,29,1,Correct,1.34188422112333,5,S02,F,R,26,25,24,1,2,1
ChD_entr_4,4,4,false,30,1,Correct,1.20865180866193,6,S02,F,R,26,10,9,16,17,1
ChD_entr_4,4,4,false,31,0,Correct,0.875590916169021,5,S02,F,R,26,9,8,17,18,4
ChD_entr_4,4,4,false,32,1,Correct,1.22767984168109,5,S02,F,R,26,17,16,9,10,1
ChD_entr_4,4,4,false,33,1,Correct,0.894620997188358,4,S02,F,R,26,14,13,12,13,1
ChD_entr_4,4,4,false,34,1,Correct,0.694786031826625,4,S02,F,R,26,20,19,6,7,1
ChD_entr_4,4,4,false,35,1,Correct,0.732851655196355,5,S02,F,R,26,21,20,5,6,1
ChD_entr_4,4,4,false,36,0,Correct,0.732848924529462,6,S02,F,R,26,18,17,8,9,4
ChD_entr_4,4,4,false,37,1,Correct,1.17058652662465,6,S02,F,R,26,15,14,11,12,1
ChD_entr_4,4,4,false,38,0,Correct,0.837523586132484,4,S02,F,R,26,18,17,8,9,4
ChD_entr_4,4,4,false,39,0,Correct,1.00881274730076,6,S02,F,R,26,4,3,22,23,4
ChD_entr_4,4,4,false,40,0,Correct,1.04687700533705,5,S02,F,R,26,24,23,2,3,4
ChD_entr_4,4,4,false,41,1,Correct,0.913653126206955,5,S02,F,R,26,14,13,12,13,1
ChD_entr_4,4,4,false,42,0,Correct,1.01832949447587,4,S02,F,R,26,18,17,8,9,4
ChD_entr_4,5,0,true,1,1,Correct,1.06590913435655,6,S02,F,R,26,1,1,0,0,1
ChD_entr_4,5,0,true,2,0,Timeout,NaN,4,S02,F,R,26,1,1,0,0,0
ChD_entr_4,5,0,true,3,0,Correct,0.923245990703508,6,S02,F,R,26,1,1,0,0,4
ChD_entr_4,5,0,true,4,1,Correct,0.847042039975313,4,S02,F,R,26,1,1,0,0,1
ChD_entr_4,5,0,true,5,1,Correct,0.780413204412507,4,S02,F,R,26,1,1,0,0,1
ChD_entr_4,5,0,true,6,1,Correct,1.18962036230914,5,S02,F,R,26,1,1,0,0,1
ChD_entr_4,5,0,true,7,1,Correct,1.00881513663247,5,S02,F,R,26,1,1,0,0,1
ChD_entr_4,5,0,true,8,0,Correct,0.72333422535452,5,S02,F,R,26,1,1,0,0,4
ChD_entr_4,5,0,true,9,0,Correct,0.961231400753277,6,S02,F,R,26,1,1,0,0,4
ChD_entr_4,5,0,true,10,0,Correct,0.761395070059007,4,S02,F,R,26,1,1,0,0,4
ChD_entr_4,5,0,true,11,1,Correct,0.732847900530287,5,S02,F,R,26,1,1,0,0,1
ChD_entr_4,5,0,true,12,1,Correct,0.989859466267771,5,S02,F,R,26,1,1,0,0,1
ChD_entr_4,5,0,true,13,0,Correct,0.789943604919354,5,S02,F,R,26,1,1,0,0,4
ChD_entr_4,5,0,true,14,0,Correct,0.828006156289739,5,S02,F,R,26,1,1,0,0,4
ChD_entr_4,5,0,true,15,0,Correct,0.713816795511775,4,S02,F,R,26,1,1,0,0,4
ChD_entr_4,5,0,true,16,1,Correct,1.36090781681152,4,S02,F,R,26,1,1,0,0,1
ChD_entr_4,5,0,true,17,0,Correct,0.913653126206955,5,S02,F,R,26,1,1,0,0,4
ChD_entr_4,5,0,true,18,0,Correct,0.742367378372291,5,S02,F,R,26,1,1,0,0,4
ChD_entr_4,5,0,true,19,1,Correct,1.09445869321698,6,S02,F,R,26,1,1,0,0,1
ChD_entr_4,5,0,true,20,1,Correct,1.21816821450368,6,S02,F,R,26,1,1,0,0,1
ChD_entr_4,5,0,true,21,1,Wrong,0.751878664216347,4,S02,F,R,26,1,1,0,0,2
ChD_entr_4,5,0,true,22,1,Correct,0.970750878596191,4,S02,F,R,26,1,1,0,0,1
ChD_entr_4,5,0,true,23,1,Correct,1.14204003976265,6,S02,F,R,26,1,1,0,0,1
ChD_entr_4,5,0,true,24,0,Wrong,1.34188422112424,4,S02,F,R,26,1,1,0,0,3
ChD_entr_4,5,0,true,25,1,Correct,0.647205367946772,6,S02,F,R,26,1,1,0,0,1
ChD_entr_4,5,0,true,26,0,Correct,0.989783348948149,4,S02,F,R,26,1,1,0,0,4
ChD_entr_4,5,0,true,27,1,Correct,0.904142864363894,4,S02,F,R,26,1,1,0,0,1
ChD_entr_4,5,0,true,28,1,Wrong,1.12300518007898,5,S02,F,R,26,1,1,0,0,2
ChD_entr_4,5,0,true,29,1,Correct,0.904136720364295,5,S02,F,R,26,1,1,0,0,1
ChD_entr_4,5,0,true,30,1,Correct,0.780427881744326,5,S02,F,R,26,1,1,0,0,1
ChD_entr_4,5,0,true,31,1,Correct,0.694783642493094,6,S02,F,R,26,1,1,0,0,1
ChD_entr_4,5,0,true,32,0,Correct,0.74236498903876,6,S02,F,R,26,1,1,0,0,4
ChD_entr_4,5,0,true,33,1,Correct,1.99849164826574,6,S02,F,R,26,1,1,0,0,1
ChD_entr_4,5,0,true,34,0,Correct,0.913651419540147,6,S02,F,R,26,1,1,0,0,4
ChD_entr_4,5,0,true,35,0,Correct,0.542524221011699,4,S02,F,R,26,1,1,0,0,4
ChD_entr_4,5,0,true,36,0,Correct,0.770911475900757,6,S02,F,R,26,1,1,0,0,4
ChD_entr_4,5,0,true,37,0,Wrong,1.63687437024699,6,S02,F,R,26,1,1,0,0,3
ChD_entr_4,5,0,true,38,0,Correct,0.704330426997658,4,S02,F,R,26,1,1,0,0,4
ChD_entr_4,5,0,true,39,0,Correct,0.98978130094798,6,S02,F,R,26,1,1,0,0,4
ChD_entr_4,5,0,true,40,1,Correct,0.856635928471042,4,S02,F,R,26,1,1,0,0,1
ChD_entr_4,5,0,true,41,0,Correct,0.66623579029856,5,S02,F,R,26,1,1,0,0,4
ChD_entr_4,5,0,true,42,0,Wrong,1.28478100740303,5,S02,F,R,26,1,1,0,0,3
ChD_entr_4,6,7,false,1,1,Correct,0.866087139658011,4,S02,F,R,26,15,7,0,8,1
ChD_entr_4,6,7,false,2,0,Correct,0.932685596558913,4,S02,F,R,26,5,12,10,3,4
ChD_entr_4,6,7,false,3,0,Correct,0.904137061697656,4,S02,F,R,26,3,10,12,5,4
ChD_entr_4,6,7,false,4,1,Correct,0.970748830596021,5,S02,F,R,26,4,11,11,4,1
ChD_entr_4,6,7,false,5,1,Correct,0.856557080484527,6,S02,F,R,26,13,5,2,10,1
ChD_entr_4,6,7,false,6,0,Correct,1.07542724686511,4,S02,F,R,26,4,11,11,4,4
ChD_entr_4,6,7,false,7,0,Correct,0.828009569623355,6,S02,F,R,26,2,9,13,6,4
ChD_entr_4,6,7,false,8,1,Correct,1.29429331724627,6,S02,F,R,26,11,3,4,12,1
ChD_entr_4,6,7,false,9,0,Correct,0.818500673111921,5,S02,F,R,26,1,8,14,7,4
ChD_entr_4,6,7,false,10,1,Correct,0.723331494687627,5,S02,F,R,26,11,3,4,12,1
ChD_entr_4,6,7,false,11,0,Correct,0.713812699512346,5,S02,F,R,26,1,8,14,7,4
ChD_entr_4,6,7,false,12,1,Wrong,0.742363965039585,5,S02,F,R,26,7,14,8,1,2
ChD_entr_4,6,7,false,13,1,Correct,0.618671169082154,6,S02,F,R,26,10,2,5,13,1
ChD_entr_4,6,7,false,14,0,Wrong,1.34187568779202,6,S02,F,R,26,11,3,4,12,3
ChD_entr_4,6,7,false,15,0,Correct,0.847042381308674,6,S02,F,R,26,11,3,4,12,4
ChD_entr_4,6,7,false,16,1,Correct,0.704299707002392,4,S02,F,R,26,3,10,12,5,1
ChD_entr_4,6,7,false,17,1,Correct,0.970749171929383,6,S02,F,R,26,10,2,5,13,1
ChD_entr_4,6,7,false,18,1,Correct,0.675749806808599,4,S02,F,R,26,4,11,11,4,1
ChD_entr_4,6,7,false,19,0,Correct,0.808975392605498,6,S02,F,R,26,14,6,1,9,4
ChD_entr_4,6,7,false,20,1,Wrong,1.63687402891363,5,S02,F,R,26,10,2,5,13,2
ChD_entr_4,6,7,false,21,1,Correct,0.74236498903967,5,S02,F,R,26,9,1,6,14,1
ChD_entr_4,6,7,false,22,0,Correct,0.485431247288616,4,S02,F,R,26,12,4,3,11,4
ChD_entr_4,6,7,false,23,1,Correct,0.904137403031018,4,S02,F,R,26,12,4,3,11,1
ChD_entr_4,6,7,false,24,1,Correct,0.81849418777987,6,S02,F,R,26,13,5,2,10,1
ChD_entr_4,6,7,false,25,1,Correct,0.571074803872216,4,S02,F,R,26,8,15,7,0,1
ChD_entr_4,6,7,false,26,1,Correct,0.742365330373032,5,S02,F,R,26,14,6,1,9,1
ChD_entr_4,6,7,false,27,0,Correct,0.513986608815285,5,S02,F,R,26,2,9,13,6,4
ChD_entr_4,6,7,false,28,0,Correct,0.827984993626778,6,S02,F,R,26,14,6,1,9,4
ChD_entr_4,6,7,false,29,0,Correct,0.637686914103942,5,S02,F,R,26,8,15,7,0,4
ChD_entr_4,6,7,false,30,0,Correct,0.647251106605399,5,S02,F,R,26,7,14,8,1,4
ChD_entr_4,6,7,false,31,1,Correct,1.00881581930011,4,S02,F,R,26,5,12,10,3,1
ChD_entr_4,6,7,false,32,0,Correct,0.761396094058182,4,S02,F,R,26,10,2,5,13,4
ChD_entr_4,6,7,false,33,0,Correct,0.999298048124001,5,S02,F,R,26,11,3,4,12,4
ChD_entr_4,6,7,false,34,0,Correct,1.08494023937415,6,S02,F,R,26,2,9,13,6,4
ChD_entr_4,6,7,false,35,0,Correct,0.85655571515108,6,S02,F,R,26,14,6,1,9,4
ChD_entr_4,6,7,false,36,0,Correct,0.704297317669771,4,S02,F,R,26,5,12,10,3,4
ChD_entr_4,6,7,false,37,1,Correct,0.552041309520173,6,S02,F,R,26,12,4,3,11,1
ChD_entr_4,6,7,false,38,0,Correct,0.694784666493178,4,S02,F,R,26,5,12,10,3,4
ChD_entr_4,6,7,false,39,1,Correct,0.533007473835678,4,S02,F,R,26,13,5,2,10,1
ChD_entr_4,6,7,false,40,1,Correct,0.742365671706393,5,S02,F,R,26,8,15,7,0,1
ChD_entr_4,6,7,false,41,1,Correct,0.885104591345698,6,S02,F,R,26,11,3,4,12,1
ChD_entr_4,6,7,false,42,0,Correct,0.637687596770666,5,S02,F,R,26,14,6,1,9,4
ChD_entr_4,7,7,true,1,0,Correct,0.704299707002392,4,S02,F,R,26,5,7,0,4,4
ChD_entr_4,7,7,true,2,1,Correct,0.999299072124086,4,S02,F,R,26,7,16,13,4,1
ChD_entr_4,7,7,true,3,1,Wrong,0.980262505772698,6,S02,F,R,26,52,37,4,1,2
ChD_entr_4,7,7,true,4,0,Correct,0.732844487197581,4,S02,F,R,26,24,12,45,16,4
ChD_entr_4,7,7,true,5,0,Correct,0.847039991975143,5,S02,F,R,26,1,4,17,20,4
ChD_entr_4,7,7,true,6,0,Correct,0.685267919317157,5,S02,F,R,26,2,9,16,11,4
ChD_entr_4,7,7,true,7,0,Correct,0.504462693640489,5,S02,F,R,26,19,9,1,7,4
ChD_entr_4,7,7,true,8,1,Correct,0.828009569622445,5,S02,F,R,26,43,6,1,10,1
ChD_entr_4,7,7,true,9,1,Correct,0.866074510327271,4,S02,F,R,26,60,7,53,106,1
ChD_entr_4,7,7,true,10,1,Correct,0.799460010762014,5,S02,F,R,26,33,16,6,8,1
ChD_entr_4,7,7,true,11,1,Wrong,1.03736264749456,4,S02,F,R,26,14,5,0,25,2
ChD_entr_4,7,7,true,12,1,Correct,0.828013324289423,5,S02,F,R,26,1,3,14,11,1
ChD_entr_4,7,7,true,13,0,Correct,0.704300048335754,6,S02,F,R,26,16,13,28,11,4
ChD_entr_4,7,7,true,14,0,Correct,1.1230058627457,5,S02,F,R,26,6,28,3,31,4
ChD_entr_4,7,7,true,15,1,Correct,0.894620655854997,6,S02,F,R,26,1,10,12,30,1
ChD_entr_4,7,7,true,16,1,Correct,1.87477666564617,5,S02,F,R,26,19,30,26,4,1
ChD_entr_4,7,7,true,17,1,Correct,0.77091215856748,4,S02,F,R,26,24,3,24,0,1
ChD_entr_4,7,7,true,18,1,Correct,1.09447712521396,6,S02,F,R,26,18,7,14,18,1
ChD_entr_4,7,7,true,19,1,Correct,0.8851028846798,4,S02,F,R,26,1,5,7,15,1
ChD_entr_4,7,7,true,20,1,Correct,0.666235448965199,6,S02,F,R,26,16,17,1,11,1
ChD_entr_4,7,7,true,21,0,Wrong,0.742364306372947,6,S02,F,R,26,11,3,4,22,3
ChD_entr_4,7,7,true,22,0,Wrong,0.723330470687542,6,S02,F,R,26,11,9,52,12,3
ChD_entr_4,7,7,true,23,0,Correct,0.847120546627557,5,S02,F,R,26,2,2,12,2,4
ChD_entr_4,7,7,true,24,0,Correct,1.63689348491069,6,S02,F,R,26,4,31,14,19,4
ChD_entr_4,7,7,true,25,0,Correct,0.71381577151169,5,S02,F,R,26,18,15,6,0,4
ChD_entr_4,7,7,true,26,0,Correct,0.799460010762923,6,S02,F,R,26,11,11,9,8,4
ChD_entr_4,7,7,true,27,1,Correct,0.609137355243511,6,S02,F,R,26,14,50,36,39,1
ChD_entr_4,7,7,true,28,1,Correct,0.6091434992422,6,S02,F,R,26,2,5,17,1,1
ChD_entr_4,7,7,true,29,1,Correct,1.13252329258754,5,S02,F,R,26,4,11,49,48,1
ChD_entr_4,7,7,true,30,1,Correct,1.37042080932057,5,S02,F,R,26,8,3,18,38,1
ChD_entr_4,7,7,true,31,1,Correct,1.44654932539495,4,S02,F,R,26,28,97,3,13,1
ChD_entr_4,7,7,true,32,0,Wrong,1.53220619397693,6,S02,F,R,26,16,10,17,2,3
ChD_entr_4,7,7,true,33,0,Correct,1.18010293246731,4,S02,F,R,26,5,11,2,5,4
ChD_entr_4,7,7,true,34,0,Wrong,0.999300437457532,5,S02,F,R,26,2,23,3,21,3
ChD_entr_4,7,7,true,35,0,Correct,1.11349013956977,4,S02,F,R,26,10,39,1,20,4
ChD_entr_4,7,7,true,36,0,Correct,0.571072755872046,4,S02,F,R,26,21,37,9,25,4
ChD_entr_4,7,7,true,37,1,Correct,0.856558104484611,4,S02,F,R,26,1,9,20,5,1
ChD_entr_4,7,7,true,38,1,Correct,0.856556056484442,5,S02,F,R,26,6,9,40,12,1
ChD_entr_4,7,7,true,39,0,Correct,0.932686279225636,6,S02,F,R,26,3,31,45,40,4
ChD_entr_4,7,7,true,40,0,Correct,0.894620997188358,4,S02,F,R,26,4,4,7,4,4
ChD_entr_4,7,7,true,41,1,Wrong,0.923170214716338,6,S02,F,R,26,2,17,8,4,2
ChD_entr_4,7,7,true,42,0,Correct,1.0278462416519,4,S02,F,R,26,52,9,15,1,4
ChD_entr_4,8,7,true,1,0,Correct,0.675750830808683,5,S02,F,R,26,7,6,0,11,4
ChD_entr_4,8,7,true,2,0,Correct,0.5805901857157,5,S02,F,R,26,17,2,13,23,4
ChD_entr_4,8,7,true,3,0,Correct,0.694785349158992,6,S02,F,R,26,10,20,21,20,4
ChD_entr_4,8,7,true,4,1,Correct,0.666237155631097,4,S02,F,R,26,25,6,7,24,1
ChD_entr_4,8,7,true,5,1,Correct,1.01832642247653,4,S02,F,R,26,30,9,28,7,1
ChD_entr_4,8,7,true,6,1,Correct,1.13252397525335,4,S02,F,R,26,4,25,3,7,1
ChD_entr_4,8,7,true,7,0,Correct,0.80902420326347,4,S02,F,R,26,18,5,22,4,4
ChD_entr_4,8,7,true,8,1,Correct,1.14203901576348,5,S02,F,R,26,5,1,49,32,1
ChD_entr_4,8,7,true,9,1,Wrong,1.67493555628393,6,S02,F,R,26,14,3,21,4,2
ChD_entr_4,8,7,true,10,0,Correct,0.637683500771236,4,S02,F,R,26,5,2,1,22,4
ChD_entr_4,8,7,true,11,1,Correct,0.932685255225551,5,S02,F,R,26,25,58,14,28,1
ChD_entr_4,8,7,true,12,1,Correct,2.36961167879632,4,S02,F,R,26,11,1,10,3,1
ChD_entr_4,8,7,true,13,0,Correct,0.704347834994551,6,S02,F,R,26,14,3,10,18,4
ChD_entr_4,8,7,true,14,0,Correct,0.618654785086255,5,S02,F,R,26,10,3,35,0,4
ChD_entr_4,8,7,true,15,1,Correct,0.885103908678975,5,S02,F,R,26,10,23,1,26,1
ChD_entr_4,8,7,true,16,1,Correct,1.94140311187544,5,S02,F,R,26,1,50,3,18,1
ChD_entr_4,8,7,true,17,1,Correct,0.78043061241031,5,S02,F,R,26,11,33,17,1,1
ChD_entr_4,8,7,true,18,0,Correct,0.932687644558173,6,S02,F,R,26,6,7,14,11,4
ChD_entr_4,8,7,true,19,1,Correct,0.780509119062553,5,S02,F,R,26,17,19,0,9,1
ChD_entr_4,8,7,true,20,0,Correct,0.961234131420169,6,S02,F,R,26,16,26,0,5,4
ChD_entr_4,8,7,true,21,1,Correct,0.970752926595451,6,S02,F,R,26,8,46,7,14,1
ChD_entr_4,8,7,true,22,0,Correct,0.656716995123279,5,S02,F,R,26,2,5,11,13,4
ChD_entr_4,8,7,true,23,1,Correct,0.828024246954264,6,S02,F,R,26,1,15,2,9,1
ChD_entr_4,8,7,true,24,0,Correct,0.694792858492037,4,S02,F,R,26,3,21,49,4,4
ChD_entr_4,8,7,true,25,0,Correct,0.590107956890897,6,S02,F,R,26,4,27,14,3,4
ChD_entr_4,8,7,true,26,0,Correct,0.618656491751244,6,S02,F,R,26,8,21,2,12,4
ChD_entr_4,8,7,true,27,1,Correct,0.675751513474497,4,S02,F,R,26,29,41,5,9,1
ChD_entr_4,8,7,true,28,0,Correct,1.22768291368044,5,S02,F,R,26,23,26,30,9,4
ChD_entr_4,8,7,true,29,1,Wrong,0.732848241863648,6,S02,F,R,26,3,10,22,16,2
ChD_entr_4,8,7,true,30,0,Correct,0.847038285309245,4,S02,F,R,26,5,34,5,9,4
ChD_entr_4,8,7,true,31,1,Correct,1.19913642681844,6,S02,F,R,26,1,17,7,5,1
ChD_entr_4,8,7,true,32,1,Correct,0.799458304096115,4,S02,F,R,26,22,21,1,17,1
ChD_entr_4,8,7,true,33,1,Wrong,0.71381577151169,4,S02,F,R,26,79,26,5,58,2
ChD_entr_4,8,7,true,34,1,Wrong,0.847037602642522,6,S02,F,R,26,12,23,4,7,2
ChD_entr_4,8,7,true,35,1,Correct,1.16106909678281,6,S02,F,R,26,100,47,38,91,1
ChD_entr_4,8,7,true,36,0,Correct,1.04687871200385,4,S02,F,R,26,7,36,1,19,4
ChD_entr_4,8,7,true,37,0,Correct,0.685267236651343,5,S02,F,R,26,35,9,1,15,4
ChD_entr_4,8,7,true,38,0,Wrong,0.951714994911526,5,S02,F,R,26,1,30,2,52,3
ChD_entr_4,8,7,true,39,0,Correct,0.599623680066834,6,S02,F,R,26,6,34,13,4,4
ChD_entr_4,8,7,true,40,0,Wrong,0.875586820169592,4,S02,F,R,26,16,18,11,19,3
ChD_entr_4,8,7,true,41,0,Correct,0.637683842104598,4,S02,F,R,26,6,13,19,25,4
ChD_entr_4,8,7,true,42,1,Correct,0.989781642282251,5,S02,F,R,26,27,29,29,13,1
ChD_entr_4,9,4,true,1,1,Correct,0.732847900530287,4,S02,F,R,26,1,45,0,3,1
ChD_entr_4,9,4,true,2,1,Correct,0.675753902808028,5,S02,F,R,26,4,4,8,28,1
ChD_entr_4,9,4,true,3,1,Correct,0.885104591346608,6,S02,F,R,26,9,7,13,44,1
ChD_entr_4,9,4,true,4,0,Correct,0.90418621368899,5,S02,F,R,26,45,55,148,8,4
ChD_entr_4,9,4,true,5,1,Correct,0.808977440603849,5,S02,F,R,26,5,12,113,10,1
ChD_entr_4,9,4,true,6,1,Correct,0.751878664215437,4,S02,F,R,26,38,35,4,15,1
ChD_entr_4,9,4,true,7,1,Wrong,1.38945669300523,4,S02,F,R,26,19,7,1,1,2
ChD_entr_4,9,4,true,8,0,Correct,0.704377872322184,5,S02,F,R,26,9,22,29,1,4
ChD_entr_4,9,4,true,9,1,Correct,0.713816795511775,4,S02,F,R,26,26,33,10,18,1
ChD_entr_4,9,4,true,10,0,Correct,2.11267793704435,4,S02,F,R,26,47,9,20,6,4
ChD_entr_4,9,4,true,11,0,Correct,0.751882077549053,4,S02,F,R,26,5,5,18,1,4
ChD_entr_4,9,4,true,12,0,Correct,0.65671494712311,4,S02,F,R,26,12,22,2,18,4
ChD_entr_4,9,4,true,13,1,Wrong,0.666234424965114,6,S02,F,R,26,4,8,73,9,2
ChD_entr_4,9,4,true,14,0,Correct,0.561555667363573,6,S02,F,R,26,71,18,14,67,4
ChD_entr_4,9,4,true,15,1,Wrong,0.628170166927921,4,S02,F,R,26,4,29,29,31,2
ChD_entr_4,9,4,true,16,0,Correct,0.571076169205662,5,S02,F,R,26,50,22,43,3,4
ChD_entr_4,9,4,true,17,1,Wrong,0.571091529202385,5,S02,F,R,26,11,1,85,42,2
ChD_entr_4,9,4,true,18,1,Wrong,0.847041698641951,5,S02,F,R,26,12,18,0,41,2
ChD_entr_4,9,4,true,19,1,Correct,0.694784325159817,5,S02,F,R,26,5,9,34,15,1
ChD_entr_4,9,4,true,20,1,Wrong,1.46558555041207,6,S02,F,R,26,47,5,6,4,2
ChD_entr_4,9,4,true,21,1,Wrong,0.780429247076863,6,S02,F,R,26,9,134,25,12,2
ChD_entr_4,9,4,true,22,1,Correct,0.93269549522458,4,S02,F,R,26,17,13,21,3,1
ChD_entr_4,9,4,true,23,1,Correct,0.732847559196925,6,S02,F,R,26,2,3,13,37,1
ChD_entr_4,9,4,true,24,0,Correct,0.866073486327186,4,S02,F,R,26,10,7,21,43,4
ChD_entr_4,9,4,true,25,0,Correct,1.61783848656232,5,S02,F,R,26,9,82,21,0,4
ChD_entr_4,9,4,true,26,0,Correct,0.685265188651174,4,S02,F,R,26,34,35,35,19,4
ChD_entr_4,9,4,true,27,1,Correct,0.732849265863733,6,S02,F,R,26,15,13,56,25,1
ChD_entr_4,9,4,true,28,0,Wrong,1.3418767117921,6,S02,F,R,26,5,9,0,16,3
ChD_entr_4,9,4,true,29,0,Correct,0.77091215856748,6,S02,F,R,26,28,29,6,23,4
ChD_entr_4,9,4,true,30,0,Correct,1.33235791661682,6,S02,F,R,26,44,15,4,9,4
ChD_entr_4,9,4,true,31,0,Correct,0.590186463544051,6,S02,F,R,26,38,1,4,0,4
ChD_entr_4,9,4,true,32,0,Correct,0.704300048335754,4,S02,F,R,26,2,14,20,25,4
ChD_entr_4,9,4,true,33,1,Correct,0.447372109250937,5,S02,F,R,26,52,3,5,1,1
ChD_entr_4,9,4,true,34,1,Correct,0.980279572437139,4,S02,F,R,26,4,9,9,1,1
ChD_entr_4,9,4,true,35,0,Correct,0.694783301159732,6,S02,F,R,26,19,15,24,2,4
ChD_entr_4,9,4,true,36,0,Correct,1.9509004030544,5,S02,F,R,26,12,14,0,8,4
ChD_entr_4,9,4,true,37,1,Correct,0.399784960038123,6,S02,F,R,26,74,21,14,67,1
ChD_entr_4,9,4,true,38,0,Correct,0.799460352095375,4,S02,F,R,26,2,39,2,4,4
ChD_entr_4,9,4,true,39,0,Wrong,1.38945532767269,5,S02,F,R,26,12,12,46,41,3
ChD_entr_4,9,4,true,40,1,Correct,0.761396094058182,5,S02,F,R,26,60,7,64,117,1
ChD_entr_4,9,4,true,41,0,Correct,0.780427540410055,6,S02,F,R,26,7,51,65,21,4
ChD_entr_4,9,4,true,42,0,Correct,0.68526860198388,5,S02,F,R,26,11,28,11,42,4
ChD_entr_4,10,4,false,1,0,Correct,0.742363282372862,6,S02,F,R,26,26,25,0,1,4
ChD_entr_4,10,4,false,2,0,Correct,0.647204002613325,6,S02,F,R,26,22,21,4,5,4
ChD_entr_4,10,4,false,3,0,Correct,0.666233059632577,5,S02,F,R,26,2,1,24,25,4
ChD_entr_4,10,4,false,4,1,Correct,1.24673176803011,4,S02,F,R,26,6,5,20,21,1
ChD_entr_4,10,4,false,5,0,Correct,1.35139141096886,4,S02,F,R,26,1,26,25,0,4
ChD_entr_4,10,4,false,6,1,Correct,1.17058959862399,6,S02,F,R,26,11,10,15,16,1
ChD_entr_4,10,4,false,7,1,Correct,0.76139575272482,4,S02,F,R,26,14,13,12,13,1
ChD_entr_4,10,4,false,8,0,Wrong,1.17059028129072,6,S02,F,R,26,8,7,18,19,3
ChD_entr_4,10,4,false,9,0,Correct,0.82800854562327,5,S02,F,R,26,11,10,15,16,4
ChD_entr_4,10,4,false,10,1,Correct,0.904135355030849,4,S02,F,R,26,24,23,2,3,1
ChD_entr_4,10,4,false,11,0,Wrong,0.923166801382722,4,S02,F,R,26,3,2,23,24,3
ChD_entr_4,10,4,false,12,0,Correct,1.05639477651315,4,S02,F,R,26,6,5,20,21,4
ChD_entr_4,10,4,false,13,1,Wrong,0.98977925294781,6,S02,F,R,26,21,20,5,6,2
ChD_entr_4,10,4,false,14,1,Wrong,1.62743749505757,6,S02,F,R,26,17,16,9,10,2
ChD_entr_4,10,4,false,15,1,Correct,1.40848916335719,5,S02,F,R,26,24,23,2,3,1
ChD_entr_4,10,4,false,16,1,Correct,1.19913574415172,5,S02,F,R,26,2,1,24,25,1
ChD_entr_4,10,4,false,17,1,Correct,1.10397373372711,6,S02,F,R,26,2,1,24,25,1
ChD_entr_4,10,4,false,18,0,Correct,1.17058755062473,4,S02,F,R,26,12,11,14,15,4
ChD_entr_4,10,4,false,19,0,Wrong,1.6368733462469,4,S02,F,R,26,15,14,11,12,3
ChD_entr_4,10,4,false,20,1,Correct,0.818492481113972,5,S02,F,R,26,21,20,5,6,1
ChD_entr_4,10,4,false,21,0,Correct,1.59880942954307,5,S02,F,R,26,9,8,17,18,4
ChD_entr_4,10,4,false,22,0,Wrong,1.43703394355147,5,S02,F,R,26,19,18,7,8,3
ChD_entr_4,10,4,false,23,1,Correct,0.837522562133308,4,S02,F,R,26,20,19,6,7,1
ChD_entr_4,10,4,false,24,0,Correct,1.47510161492228,6,S02,F,R,26,6,5,20,21,4
ChD_entr_4,10,4,false,25,1,Correct,0.818492822447333,4,S02,F,R,26,3,2,23,24,1
ChD_entr_4,10,4,false,26,1,Correct,0.84704135730859,6,S02,F,R,26,17,16,9,10,1
ChD_entr_4,10,4,false,27,1,Wrong,0.84703726130916,6,S02,F,R,26,2,1,24,25,2
ChD_entr_4,10,4,false,28,0,Correct,0.618654785085346,6,S02,F,R,26,13,12,13,14,4
ChD_entr_4,10,4,false,29,0,Wrong,1.33236167128198,4,S02,F,R,26,22,21,4,5,3
ChD_entr_4,10,4,false,30,1,Wrong,1.18010463913412,6,S02,F,R,26,8,7,18,19,2
ChD_entr_4,10,4,false,31,0,Wrong,1.0088141126333,5,S02,F,R,26,10,9,16,17,3
ChD_entr_4,10,4,false,32,1,Correct,0.761411795389176,4,S02,F,R,26,4,3,22,23,1
ChD_entr_4,10,4,false,33,1,Correct,0.628170849594644,5,S02,F,R,26,24,23,2,3,1
ChD_entr_4,10,4,false,34,0,Correct,0.818494870446593,6,S02,F,R,26,6,5,20,21,4
ChD_entr_4,10,4,false,35,0,Correct,1.53219458864536,5,S02,F,R,26,20,19,6,7,4
ChD_entr_4,10,4,false,36,1,Correct,1.10397612305973,4,S02,F,R,26,11,10,15,16,1
ChD_entr_4,10,4,false,37,1,Correct,1.55123217899592,5,S02,F,R,26,21,20,5,6,1
ChD_entr_4,10,4,false,38,0,Correct,1.29429638924561,6,S02,F,R,26,10,9,16,17,4
ChD_entr_4,10,4,false,39,1,Correct,0.866072462327102,5,S02,F,R,26,26,25,0,1,1
ChD_entr_4,10,4,false,40,0,Correct,1.33243847126923,5,S02,F,R,26,9,8,17,18,4
ChD_entr_4,10,4,false,41,1,Correct,0.828088076275599,5,S02,F,R,26,21,20,5,6,1
ChD_entr_4,10,4,false,42,0,Correct,1.45606641390343,4,S02,F,R,26,8,7,18,19,4
ChD_entr_4,11,4,true,1,1,Correct,0.789950772918128,4,S02,F,R,26,15,39,0,15,1
ChD_entr_4,11,4,true,2,0,Correct,1.00881172329977,6,S02,F,R,26,5,26,45,37,4
ChD_entr_4,11,4,true,3,1,Correct,0.761396094058182,4,S02,F,R,26,7,8,26,3,1
ChD_entr_4,11,4,true,4,0,Correct,0.923169190716253,4,S02,F,R,26,15,40,71,12,4
ChD_entr_4,11,4,true,5,0,Wrong,1.38945669300523,5,S02,F,R,26,6,68,68,43,3
ChD_entr_4,11,4,true,6,0,Correct,0.713815088845877,4,S02,F,R,26,32,31,5,21,4
ChD_entr_4,11,4,true,7,1,Correct,0.961235838086068,5,S02,F,R,26,21,15,17,32,1
ChD_entr_4,11,4,true,8,0,Correct,0.656797891109054,5,S02,F,R,26,16,18,3,2,4
ChD_entr_4,11,4,true,9,0,Correct,1.37042388131991,5,S02,F,R,26,43,19,6,10,4
ChD_entr_4,11,4,true,10,1,Correct,0.723329788021729,6,S02,F,R,26,7,9,22,35,1
ChD_entr_4,11,4,true,11,1,Wrong,1.33235928195027,5,S02,F,R,26,3,12,29,16,2
ChD_entr_4,11,4,true,12,0,Correct,0.808974027272052,4,S02,F,R,26,81,28,0,53,4
ChD_entr_4,11,4,true,13,0,Correct,0.799460693428737,6,S02,F,R,26,2,3,3,21,4
ChD_entr_4,11,4,true,14,0,Wrong,0.780427199076694,6,S02,F,R,26,13,30,36,28,3
ChD_entr_4,11,4,true,15,0,Correct,1.97945132724828,6,S02,F,R,26,45,11,11,8,4
ChD_entr_4,11,4,true,16,0,Correct,0.751916893542839,4,S02,F,R,26,3,15,22,19,4
ChD_entr_4,11,4,true,17,0,Correct,1.46558213707936,5,S02,F,R,26,19,67,25,34,4
ChD_entr_4,11,4,true,18,0,Correct,0.713814747511606,5,S02,F,R,26,45,32,8,0,4
ChD_entr_4,11,4,true,19,0,Correct,0.590106250224089,4,S02,F,R,26,12,6,27,0,4
ChD_entr_4,11,4,true,20,1,Correct,0.723334566686972,4,S02,F,R,26,126,73,33,86,1
ChD_entr_4,11,4,true,21,1,Correct,1.27526255356112,6,S02,F,R,26,57,4,7,60,1
ChD_entr_4,11,4,true,22,0,Correct,1.51316314229258,5,S02,F,R,26,3,30,97,20,4
ChD_entr_4,11,4,true,23,1,Correct,1.29429536524553,6,S02,F,R,26,28,19,1,4,1
ChD_entr_4,11,4,true,24,1,Wrong,0.828008886956632,5,S02,F,R,26,13,2,11,10,2
ChD_entr_4,11,4,true,25,0,Correct,0.932693788556862,4,S02,F,R,26,9,8,0,44,4
ChD_entr_4,11,4,true,26,0,Correct,0.742360210373517,6,S02,F,R,26,20,11,14,33,4
ChD_entr_4,11,4,true,27,1,Correct,0.732847559196925,4,S02,F,R,26,13,28,36,35,1
ChD_entr_4,11,4,true,28,1,Correct,1.55122535233051,4,S02,F,R,26,2,12,2,6,1
ChD_entr_4,11,4,true,29,1,Wrong,0.637685207438044,5,S02,F,R,26,59,6,15,68,2
ChD_entr_4,11,4,true,30,1,Correct,0.961233107420994,5,S02,F,R,26,53,2,3,0,1
ChD_entr_4,11,4,true,31,1,Correct,0.618654785086255,5,S02,F,R,26,30,53,7,23,1
ChD_entr_4,11,4,true,32,1,Wrong,1.26574717171763,4,S02,F,R,26,29,54,15,24,2
ChD_entr_4,11,4,true,33,1,Correct,1.68445162079413,6,S02,F,R,26,3,2,4,22,1
ChD_entr_4,11,4,true,34,1,Correct,0.894619973189183,5,S02,F,R,26,36,6,4,17,1
ChD_entr_4,11,4,true,35,0,Wrong,2.03654634897153,6,S02,F,R,26,96,43,54,107,3
ChD_entr_4,11,4,true,36,1,Correct,1.06598832367552,6,S02,F,R,26,82,29,2,55,1
ChD_entr_4,11,4,true,37,0,Correct,0.447382007915694,4,S02,F,R,26,4,3,3,3,4
ChD_entr_4,11,4,true,38,1,Correct,0.780442900407688,6,S02,F,R,26,20,1,0,20,1
ChD_entr_4,11,4,true,39,1,Correct,1.42752095104242,6,S02,F,R,26,126,73,59,112,1
ChD_entr_4,11,4,true,40,0,Correct,0.770909769234859,6,S02,F,R,26,11,78,45,12,4
ChD_entr_4,11,4,true,41,0,Wrong,1.03736094082775,5,S02,F,R,26,8,117,35,6,3
ChD_entr_4,11,4,true,42,1,Correct,0.894620655854997,4,S02,F,R,26,1,61,48,19,1
ChD_entr_4,12,0,true,1,0,Correct,0.647204002613325,5,S02,F,R,26,1,1,0,0,4
ChD_entr_4,12,0,true,2,0,Correct,0.742366013038845,4,S02,F,R,26,1,1,0,0,4
ChD_entr_4,12,0,true,3,1,Correct,0.770913523900926,4,S02,F,R,26,1,1,0,0,1
ChD_entr_4,12,0,true,4,1,Wrong,0.989781983614703,6,S02,F,R,26,1,1,0,0,2
ChD_entr_4,12,0,true,5,0,Correct,0.828008886956632,4,S02,F,R,26,1,1,0,0,4
ChD_entr_4,12,0,true,6,0,Correct,0.656796184442246,5,S02,F,R,26,1,1,0,0,4
ChD_entr_4,12,0,true,7,0,Correct,0.561560787363087,4,S02,F,R,26,1,1,0,0,4
ChD_entr_4,12,0,true,8,0,Correct,0.599623680066834,6,S02,F,R,26,1,1,0,0,4
ChD_entr_4,12,0,true,9,1,Correct,0.637688962103202,5,S02,F,R,26,1,1,0,0,1
ChD_entr_4,12,0,true,10,0,Correct,0.590107615557536,5,S02,F,R,26,1,1,0,0,4
ChD_entr_4,12,0,true,11,1,Correct,0.7899449702528,5,S02,F,R,26,1,1,0,0,1
ChD_entr_4,12,0,true,12,0,Correct,0.723332518687712,6,S02,F,R,26,1,1,0,0,4
ChD_entr_4,12,0,true,13,1,Correct,0.628170849594644,4,S02,F,R,26,1,1,0,0,1
ChD_entr_4,12,0,true,14,0,Correct,0.789945311586162,6,S02,F,R,26,1,1,0,0,4
ChD_entr_4,12,0,true,15,1,Correct,0.628168801595384,4,S02,F,R,26,1,1,0,0,1
ChD_entr_4,12,0,true,16,1,Correct,1.77009859071135,6,S02,F,R,26,1,1,0,0,1
ChD_entr_4,12,0,true,17,0,Wrong,0.885123364676037,6,S02,F,R,26,1,1,0,0,3
ChD_entr_4,12,0,true,18,0,Wrong,1.31332647026495,4,S02,F,R,26,1,1,0,0,3
ChD_entr_4,12,0,true,19,0,Correct,1.30385921641362,5,S02,F,R,26,1,1,0,0,4
ChD_entr_4,12,0,true,20,1,Correct,1.02784658298526,4,S02,F,R,26,1,1,0,0,1
ChD_entr_4,12,0,true,21,1,Correct,1.25623349654095,4,S02,F,R,26,1,1,0,0,1
ChD_entr_4,12,0,true,22,0,Correct,0.694781253160472,4,S02,F,R,26,1,1,0,0,4
ChD_entr_4,12,0,true,23,0,Correct,0.675830702794374,5,S02,F,R,26,1,1,0,0,4
ChD_entr_4,12,0,true,24,1,Correct,0.552040968187721,5,S02,F,R,26,1,1,0,0,1
ChD_entr_4,12,0,true,25,1,Correct,0.780425833744157,5,S02,F,R,26,1,1,0,0,1
ChD_entr_4,12,0,true,26,0,Correct,0.875590233503208,4,S02,F,R,26,1,1,0,0,4
ChD_entr_4,12,0,true,27,1,Correct,0.513980123483234,4,S02,F,R,26,1,1,0,0,1
ChD_entr_4,12,0,true,28,0,Correct,0.799461717427912,4,S02,F,R,26,1,1,0,0,4
ChD_entr_4,12,0,true,29,0,Wrong,0.694800367823263,6,S02,F,R,26,1,1,0,0,3
ChD_entr_4,12,0,true,30,1,Correct,0.647201954613156,4,S02,F,R,26,1,1,0,0,1
ChD_entr_4,12,0,true,31,1,Timeout,NaN,6,S02,F,R,26,1,1,0,0,0
ChD_entr_4,12,0,true,32,1,Wrong,2.4267046525194,5,S02,F,R,26,1,1,0,0,2
ChD_entr_4,12,0,true,33,0,Correct,0.828006497623101,6,S02,F,R,26,1,1,0,0,4
ChD_entr_4,12,0,true,34,0,Correct,0.571075145205577,6,S02,F,R,26,1,1,0,0,4
ChD_entr_4,12,0,true,35,1,Correct,0.580590868381514,5,S02,F,R,26,1,1,0,0,1
ChD_entr_4,12,0,true,36,0,Wrong,1.02784726565198,5,S02,F,R,26,1,1,0,0,3
ChD_entr_4,12,0,true,37,0,Correct,1.43703769821845,5,S02,F,R,26,1,1,0,0,4
ChD_entr_4,12,0,true,38,1,Correct,1.0088141126333,6,S02,F,R,26,1,1,0,0,1
ChD_entr_4,12,0,true,39,1,Wrong,0.751881736214782,6,S02,F,R,26,1,1,0,0,2
ChD_entr_4,12,0,true,40,1,Wrong,0.65672143245516,6,S02,F,R,26,1,1,0,0,2
ChD_entr_4,12,0,true,41,1,Correct,1.11349116356894,6,S02,F,R,26,1,1,0,0,1
ChD_entr_4,12,0,true,42,1,Correct,0.656716995123279,5,S02,F,R,26,1,1,0,0,1
ChD_entr_4,13,4,true,1,1,Correct,1.01832983581015,4,S02,F,R,26,35,20,0,17,1
ChD_entr_4,13,4,true,2,0,Correct,0.63768657277149,6,S02,F,R,26,20,68,38,0,4
ChD_entr_4,13,4,true,3,1,Correct,0.599624021400195,4,S02,F,R,26,5,41,2,29,1
ChD_entr_4,13,4,true,4,1,Correct,1.03736094082775,6,S02,F,R,26,54,1,87,140,1
ChD_entr_4,13,4,true,5,0,Correct,0.580590868382424,4,S02,F,R,26,18,13,54,17,4
ChD_entr_4,13,4,true,6,1,Correct,0.723329788021729,6,S02,F,R,26,94,41,15,68,1
ChD_entr_4,13,4,true,7,1,Wrong,0.62822887625156,6,S02,F,R,26,19,8,14,21,2
ChD_entr_4,13,4,true,8,1,Correct,0.87560525216657,5,S02,F,R,26,7,51,18,8,1
ChD_entr_4,13,4,true,9,1,Correct,1.01832915314342,4,S02,F,R,26,28,36,12,8,1
ChD_entr_4,13,4,true,10,0,Wrong,0.942198589068867,5,S02,F,R,26,27,33,1,24,3
ChD_entr_4,13,4,true,11,1,Correct,0.970746099930038,4,S02,F,R,26,116,63,30,83,1
ChD_entr_4,13,4,true,12,0,Wrong,0.90413774436438,4,S02,F,R,26,4,30,13,0,3
ChD_entr_4,13,4,true,13,1,Correct,0.818492481113972,5,S02,F,R,26,18,24,34,35,1
ChD_entr_4,13,4,true,14,0,Correct,0.761394046058922,6,S02,F,R,26,24,3,12,18,4
ChD_entr_4,13,4,true,15,0,Correct,0.456879299094653,4,S02,F,R,26,2,18,97,45,4
ChD_entr_4,13,4,true,16,0,Correct,0.647201271946433,5,S02,F,R,26,46,12,27,7,4
ChD_entr_4,13,4,true,17,0,Correct,0.723328081354921,5,S02,F,R,26,12,7,19,37,4
ChD_entr_4,13,4,true,18,1,Correct,0.808976757938035,6,S02,F,R,26,1,19,16,46,1
ChD_entr_4,13,4,true,19,1,Wrong,1.25623144854169,5,S02,F,R,26,34,27,0,1,2
ChD_entr_4,13,4,true,20,1,Correct,0.980265919105404,4,S02,F,R,26,17,9,42,28,1
ChD_entr_4,13,4,true,21,1,Correct,0.923170214716338,4,S02,F,R,26,1,16,50,52,1
ChD_entr_4,13,4,true,22,0,Correct,0.780427881743417,4,S02,F,R,26,7,13,11,0,4
ChD_entr_4,13,4,true,23,0,Correct,1.63687368758026,4,S02,F,R,26,17,148,65,1,4
ChD_entr_4,13,4,true,24,0,Wrong,0.609243168558314,6,S02,F,R,26,129,76,45,98,3
ChD_entr_4,13,4,true,25,1,Correct,0.837522220799037,5,S02,F,R,26,9,28,22,1,1
ChD_entr_4,13,4,true,26,1,Correct,1.00881308863321,6,S02,F,R,26,10,12,14,11,1
ChD_entr_4,13,4,true,27,0,Wrong,0.799459669428652,6,S02,F,R,26,18,9,5,25,3
ChD_entr_4,13,4,true,28,1,Correct,0.789943946252715,5,S02,F,R,26,27,5,4,1,1
ChD_entr_4,13,4,true,29,0,Wrong,1.57977934852464,6,S02,F,R,26,26,16,2,27,3
ChD_entr_4,13,4,true,30,0,Correct,0.85655571515108,5,S02,F,R,26,37,4,20,0,4
ChD_entr_4,13,4,true,31,0,Correct,0.571074462539764,4,S02,F,R,26,35,43,17,1,4
ChD_entr_4,13,4,true,32,0,Correct,0.618654785085346,5,S02,F,R,26,10,4,29,43,4
ChD_entr_4,13,4,true,33,1,Correct,0.980264553771958,5,S02,F,R,26,6,19,51,47,1
ChD_entr_4,13,4,true,34,0,Correct,0.523496187991623,5,S02,F,R,26,16,7,5,24,4
ChD_entr_4,13,4,true,35,1,Correct,0.923168849382891,6,S02,F,R,26,92,39,1,54,1
ChD_entr_4,13,4,true,36,0,Correct,0.770909769234859,5,S02,F,R,26,33,4,3,20,4
ChD_entr_4,13,4,true,37,0,Wrong,0.856556739152074,6,S02,F,R,26,4,40,30,1,3
ChD_entr_4,13,4,true,38,0,Correct,1.01832881180915,4,S02,F,R,26,29,6,24,24,4
ChD_entr_4,13,4,true,39,1,Correct,0.761393704724651,4,S02,F,R,26,30,39,56,1,1
ChD_entr_4,13,4,true,40,1,Correct,1.18010293246731,6,S02,F,R,26,9,26,8,2,1
ChD_entr_4,13,4,true,41,0,Correct,1.39897207484781,6,S02,F,R,26,13,16,23,5,4
ChD_entr_4,13,4,true,42,1,Correct,1.18010600446665,5,S02,F,R,26,18,10,75,21,1
ChD_entr_4,14,0,true,1,1,Correct,0.742365671706393,5,S02,F,R,26,1,1,0,0,1
ChD_entr_4,14,0,true,2,1,Correct,0.580591209714876,4,S02,F,R,26,1,1,0,0,1
ChD_entr_4,14,0,true,3,0,Wrong,0.694783983826455,5,S02,F,R,26,1,1,0,0,3
ChD_entr_4,14,0,true,4,0,Correct,0.494947653131276,4,S02,F,R,26,1,1,0,0,4
ChD_entr_4,14,0,true,5,1,Correct,1.53219731931134,6,S02,F,R,26,1,1,0,0,1
ChD_entr_4,14,0,true,6,1,Correct,0.856556056485351,5,S02,F,R,26,1,1,0,0,1
ChD_entr_4,14,0,true,7,0,Correct,0.61865580908543,4,S02,F,R,26,1,1,0,0,4
ChD_entr_4,14,0,true,8,1,Correct,1.23719863685637,5,S02,F,R,26,1,1,0,0,1
ChD_entr_4,14,0,true,9,1,Correct,0.628188257591537,5,S02,F,R,26,1,1,0,0,1
ChD_entr_4,14,0,true,10,0,Correct,0.799464106761443,5,S02,F,R,26,1,1,0,0,4
ChD_entr_4,14,0,true,11,0,Correct,1.18962070364341,6,S02,F,R,26,1,1,0,0,4
ChD_entr_4,14,0,true,12,1,Correct,0.504540176293558,6,S02,F,R,26,1,1,0,0,1
ChD_entr_4,14,0,true,13,1,Correct,0.951718408243323,5,S02,F,R,26,1,1,0,0,1
ChD_entr_4,14,0,true,14,1,Correct,1.12300791074496,5,S02,F,R,26,1,1,0,0,1
ChD_entr_4,14,0,true,15,0,Correct,1.27528132689054,4,S02,F,R,26,1,1,0,0,4
ChD_entr_4,14,0,true,16,0,Wrong,1.01838069446738,4,S02,F,R,26,1,1,0,0,3
ChD_entr_4,14,0,true,17,0,Correct,1.37042217465401,4,S02,F,R,26,1,1,0,0,4
ChD_entr_4,14,0,true,18,1,Correct,0.951718066910871,5,S02,F,R,26,1,1,0,0,1
ChD_entr_4,14,0,true,19,0,Correct,0.866074510327271,5,S02,F,R,26,1,1,0,0,4
ChD_entr_4,14,0,true,20,1,Correct,0.685272015316586,4,S02,F,R,26,1,1,0,0,1
ChD_entr_4,14,0,true,21,1,Correct,0.618652395751815,4,S02,F,R,26,1,1,0,0,1
ChD_entr_4,14,0,true,22,1,Correct,0.961235155419345,6,S02,F,R,26,1,1,0,0,1
ChD_entr_4,14,0,true,23,0,Wrong,1.84622574145138,5,S02,F,R,26,1,1,0,0,3
ChD_entr_4,14,0,true,24,1,Correct,0.789948724918868,6,S02,F,R,26,1,1,0,0,1
ChD_entr_4,14,0,true,25,0,Wrong,0.751882418881505,6,S02,F,R,26,1,1,0,0,3
ChD_entr_4,14,0,true,26,1,Correct,0.894698821175698,4,S02,F,R,26,1,1,0,0,1
ChD_entr_4,14,0,true,27,0,Correct,0.799461034762098,4,S02,F,R,26,1,1,0,0,4
ChD_entr_4,14,0,true,28,1,Correct,0.599623338733472,6,S02,F,R,26,1,1,0,0,1
ChD_entr_4,14,0,true,29,0,Correct,0.713812358178984,6,S02,F,R,26,1,1,0,0,4
ChD_entr_4,14,0,true,30,0,Correct,0.590107615557536,5,S02,F,R,26,1,1,0,0,4
ChD_entr_4,14,0,true,31,1,Correct,0.66623579029856,6,S02,F,R,26,1,1,0,0,1
ChD_entr_4,14,0,true,32,1,Wrong,0.656768877781506,6,S02,F,R,26,1,1,0,0,2
ChD_entr_4,14,0,true,33,0,Correct,0.742363282372862,5,S02,F,R,26,1,1,0,0,4
ChD_entr_4,14,0,true,34,0,Correct,0.761396776724905,6,S02,F,R,26,1,1,0,0,4
ChD_entr_4,14,0,true,35,1,Correct,0.590106932890812,4,S02,F,R,26,1,1,0,0,1
ChD_entr_4,14,0,true,36,0,Correct,0.637687938104027,5,S02,F,R,26,1,1,0,0,4
ChD_entr_4,14,0,true,37,0,Correct,0.770911817234119,6,S02,F,R,26,1,1,0,0,4
ChD_entr_4,14,0,true,38,0,Wrong,0.818489409114627,6,S02,F,R,26,1,1,0,0,3
ChD_entr_4,14,0,true,39,1,Correct,1.07542724686511,4,S02,F,R,26,1,1,0,0,1
ChD_entr_4,14,0,true,40,1,Correct,0.828005473623925,4,S02,F,R,26,1,1,0,0,1
ChD_entr_4,14,0,true,41,0,Correct,1.29434383457105,6,S02,F,R,26,1,1,0,0,4
ChD_entr_4,14,0,true,42,0,Correct,0.675765166805322,4,S02,F,R,26,1,1,0,0,4
ChD_entr_4,15,7,false,1,0,Correct,0.590107274224174,5,S02,F,R,26,15,7,0,8,4
ChD_entr_4,15,7,false,2,1,Wrong,0.751881736215691,5,S02,F,R,26,4,11,11,4,2
ChD_entr_4,15,7,false,3,1,Correct,1.05639306984725,6,S02,F,R,26,6,13,9,2,1
ChD_entr_4,15,7,false,4,1,Correct,0.894618266521465,4,S02,F,R,26,6,13,9,2,1
ChD_entr_4,15,7,false,5,0,Correct,0.609139403242771,4,S02,F,R,26,8,15,7,0,4
ChD_entr_4,15,7,false,6,1,Correct,0.999295317457108,4,S02,F,R,26,10,2,5,13,1
ChD_entr_4,15,7,false,7,1,Correct,0.723333201354435,5,S02,F,R,26,1,8,14,7,1
ChD_entr_4,15,7,false,8,1,Correct,0.808978464604843,6,S02,F,R,26,6,13,9,2,1
ChD_entr_4,15,7,false,9,1,Correct,0.770909769233949,5,S02,F,R,26,2,9,13,6,1
ChD_entr_4,15,7,false,10,1,Correct,0.761395411391459,6,S02,F,R,26,2,9,13,6,1
ChD_entr_4,15,7,false,11,1,Correct,1.32284082810744,5,S02,F,R,26,3,10,12,5,1
ChD_entr_4,15,7,false,12,0,Correct,0.523495163991538,6,S02,F,R,26,5,12,10,3,4
ChD_entr_4,15,7,false,13,1,Wrong,0.418818795723528,4,S02,F,R,26,1,8,14,7,2
ChD_entr_4,15,7,false,14,0,Correct,0.609139744576132,4,S02,F,R,26,8,15,7,0,4
ChD_entr_4,15,7,false,15,1,Correct,0.770911817234119,4,S02,F,R,26,10,2,5,13,1
ChD_entr_4,15,7,false,16,0,Correct,0.647204343946687,6,S02,F,R,26,10,2,5,13,4
ChD_entr_4,15,7,false,17,0,Correct,0.71381986751112,4,S02,F,R,26,8,15,7,0,4
ChD_entr_4,15,7,false,18,1,Correct,0.789942239586817,6,S02,F,R,26,14,6,1,9,1
ChD_entr_4,15,7,false,19,0,Correct,1.37042422265327,4,S02,F,R,26,12,4,3,11,4
ChD_entr_4,15,7,false,20,0,Correct,0.656719384455901,6,S02,F,R,26,9,1,6,14,4
ChD_entr_4,15,7,false,21,0,Correct,0.561556350029387,6,S02,F,R,26,6,13,9,2,4
ChD_entr_4,15,7,false,22,0,Wrong,0.961233107420994,5,S02,F,R,26,13,5,2,10,3
ChD_entr_4,15,7,false,23,1,Correct,0.86607416899391,4,S02,F,R,26,8,15,7,0,1
ChD_entr_4,15,7,false,24,0,Correct,0.894635674519268,6,S02,F,R,26,13,5,2,10,4
ChD_entr_4,15,7,false,25,0,Correct,0.780439487074982,4,S02,F,R,26,15,7,0,8,4
ChD_entr_4,15,7,false,26,0,Correct,1.03735821016176,6,S02,F,R,26,14,6,1,9,4
ChD_entr_4,15,7,false,27,1,Correct,0.694787738492523,6,S02,F,R,26,1,8,14,7,1
ChD_entr_4,15,7,false,28,1,Correct,1.06591084102245,5,S02,F,R,26,9,1,6,14,1
ChD_entr_4,15,7,false,29,1,Correct,0.770909769234859,4,S02,F,R,26,8,15,7,0,1
ChD_entr_4,15,7,false,30,1,Wrong,0.599626752066179,5,S02,F,R,26,8,15,7,0,2
ChD_entr_4,15,7,false,31,0,Correct,0.552041992187806,5,S02,F,R,26,11,3,4,12,4
ChD_entr_4,15,7,false,32,0,Wrong,0.504462352307128,5,S02,F,R,26,4,11,11,4,3
ChD_entr_4,15,7,false,33,0,Wrong,1.3229227480933,4,S02,F,R,26,2,9,13,6,3
ChD_entr_4,15,7,false,34,0,Wrong,0.942202685068296,6,S02,F,R,26,4,11,11,4,3
ChD_entr_4,15,7,false,35,0,Correct,0.675747758808429,5,S02,F,R,26,1,8,14,7,4
ChD_entr_4,15,7,false,36,1,Correct,0.742362941039501,4,S02,F,R,26,11,3,4,12,1
ChD_entr_4,15,7,false,37,1,Correct,1.15160218426485,6,S02,F,R,26,14,6,1,9,1
ChD_entr_4,15,7,false,38,0,Wrong,1.1325314845864,4,S02,F,R,26,4,11,11,4,3
ChD_entr_4,15,7,false,39,0,Correct,0.751880370882245,5,S02,F,R,26,11,3,4,12,4
ChD_entr_4,15,7,false,40,0,Correct,0.656722797788607,5,S02,F,R,26,13,5,2,10,4
ChD_entr_4,15,7,false,41,1,Correct,0.542529682343666,6,S02,F,R,26,10,2,5,13,1
ChD_entr_4,15,7,false,42,1,Correct,0.780478399068197,5,S02,F,R,26,4,11,11,4,1
ChD_entr_4,1,7,true,1,1,Correct,0.975848308765708,4,S03,M,R,28,3,21,0,5,1
ChD_entr_4,1,7,true,2,0,Correct,0.755827125622891,6,S03,M,R,28,7,4,14,6,4
ChD_entr_4,1,7,true,3,0,Correct,0.765395905642072,6,S03,M,R,28,4,18,11,6,4
ChD_entr_4,1,7,true,4,1,Correct,0.593204969267972,5,S03,M,R,28,9,1,6,4,1
ChD_entr_4,1,7,true,5,1,Correct,0.822792201768534,4,S03,M,R,28,15,7,27,34,1
ChD_entr_4,1,7,true,6,1,Correct,0.707997561517259,4,S03,M,R,28,14,6,14,3,1
ChD_entr_4,1,7,true,7,1,Wrong,0.746260393600241,6,S03,M,R,28,1,8,19,13,2
ChD_entr_4,1,7,true,8,1,Wrong,0.794105317703506,6,S03,M,R,28,67,15,6,58,2
ChD_entr_4,1,7,true,9,1,Wrong,0.794093029706128,6,S03,M,R,28,10,12,20,10,2
ChD_entr_4,1,7,true,10,1,Correct,0.765394881643806,5,S03,M,R,28,17,15,7,12,1
ChD_entr_4,1,7,true,11,0,Correct,0.679297365456587,4,S03,M,R,28,11,41,0,23,4
ChD_entr_4,1,7,true,12,0,Correct,0.908884939288691,4,S03,M,R,28,15,13,0,18,4
ChD_entr_4,1,7,true,13,1,Correct,0.774959565664467,4,S03,M,R,28,1,6,2,30,1
ChD_entr_4,1,7,true,14,0,Correct,0.72713102555892,5,S03,M,R,28,7,2,21,22,4
ChD_entr_4,1,7,true,15,0,Correct,0.794096443037924,4,S03,M,R,28,3,12,29,14,4
ChD_entr_4,1,7,true,16,1,Correct,0.794093712371032,6,S03,M,R,28,16,4,11,19,1
ChD_entr_4,1,7,true,17,0,Correct,0.69843356016514,5,S03,M,R,28,3,35,18,6,4
ChD_entr_4,1,7,true,18,0,Correct,0.727131708225643,6,S03,M,R,28,7,21,8,5,4
ChD_entr_4,1,7,true,19,1,Correct,0.650601606727796,5,S03,M,R,28,5,1,37,18,1
ChD_entr_4,1,7,true,20,0,Correct,0.650603313392785,4,S03,M,R,28,26,6,2,25,4
ChD_entr_4,1,7,true,21,0,Correct,0.554939747853277,4,S03,M,R,28,9,9,5,7,4
ChD_entr_4,1,7,true,22,1,Correct,0.774961613662817,4,S03,M,R,28,4,17,2,32,1
ChD_entr_4,1,7,true,23,0,Correct,0.813177683089816,5,S03,M,R,28,24,7,1,21,4
ChD_entr_4,1,7,true,24,1,Wrong,0.71756463487327,5,S03,M,R,28,14,10,30,5,2
ChD_entr_4,1,7,true,25,0,Correct,0.679297706788129,5,S03,M,R,28,10,10,16,12,4
ChD_entr_4,1,7,true,26,1,Correct,0.660165608081734,4,S03,M,R,28,19,22,7,3,1
ChD_entr_4,1,7,true,27,0,Correct,0.708006094849479,6,S03,M,R,28,4,32,0,35,4
ChD_entr_4,1,7,true,28,1,Wrong,0.593205310601334,6,S03,M,R,28,11,14,10,4,2
ChD_entr_4,1,7,true,29,1,Correct,0.574073894561661,4,S03,M,R,28,8,4,12,3,1
ChD_entr_4,1,7,true,30,0,Correct,0.727127270893761,5,S03,M,R,28,49,16,2,3,4
ChD_entr_4,1,7,true,31,1,Wrong,0.899317524599319,5,S03,M,R,28,3,3,16,14,2
ChD_entr_4,1,7,true,32,0,Correct,0.574073553226481,6,S03,M,R,28,10,7,4,8,4
ChD_entr_4,1,7,true,33,0,Correct,0.516676915770295,5,S03,M,R,28,1,21,2,22,4
ChD_entr_4,1,7,true,34,1,Wrong,0.516674867768306,6,S03,M,R,28,28,8,5,6,2
ChD_entr_4,1,7,true,35,1,Wrong,0.487979109041335,6,S03,M,R,28,2,14,17,14,2
ChD_entr_4,1,7,true,36,0,Correct,0.488028602364211,5,S03,M,R,28,9,17,0,32,4
ChD_entr_4,1,7,true,37,1,Correct,0.564588058525696,5,S03,M,R,28,1,31,16,51,1
ChD_entr_4,1,7,true,38,0,Correct,0.641034874706966,4,S03,M,R,28,10,2,4,6,4
ChD_entr_4,1,7,true,39,0,Correct,0.564508186539097,4,S03,M,R,28,19,3,34,15,4
ChD_entr_4,1,7,true,40,0,Correct,0.478412718353866,6,S03,M,R,28,5,27,18,2,4
ChD_entr_4,1,7,true,41,0,Correct,0.574073894561661,6,S03,M,R,28,3,10,33,26,4
ChD_entr_4,1,7,true,42,1,Correct,0.746263124267134,5,S03,M,R,28,12,7,7,20,1
ChD_entr_4,2,4,true,1,0,Correct,0.679300437456841,5,S03,M,R,28,12,44,0,24,4
ChD_entr_4,2,4,true,2,1,Correct,0.497546182393708,5,S03,M,R,28,66,14,3,55,1
ChD_entr_4,2,4,true,3,1,Correct,0.994982455474092,4,S03,M,R,28,3,53,8,45,1
