version,block,frequency,trial,change,response,RT,loads,ID,gender,hand,age,resp_type
ChD_entr_4_BB,1,0,1,0,Correct,1.08969900197215,5,S01,M,R,27,4
ChD_entr_4_BB,1,0,2,1,Wrong,0.770322904799796,6,S01,M,R,27,2
ChD_entr_4_BB,1,0,3,1,Wrong,0.90182671390965,5,S01,M,R,27,2
ChD_entr_4_BB,1,0,4,1,Wrong,0.629426795420259,6,S01,M,R,27,2
ChD_entr_4_BB,1,0,5,1,Wrong,0.836080612021869,5,S01,M,R,27,2
ChD_entr_4_BB,1,0,6,1,Wrong,0.685771039703322,5,S01,M,R,27,2
ChD_entr_4_BB,1,0,7,0,Correct,0.901836271244683,5,S01,M,R,27,4
ChD_entr_4_BB,1,0,8,1,Wrong,0.807892105877618,4,S01,M,R,27,2
ChD_entr_4_BB,1,0,9,0,Correct,0.789127985341765,6,S01,M,R,27,4
ChD_entr_4_BB,1,0,10,1,Correct,0.582467683406285,5,S01,M,R,27,1
ChD_entr_4_BB,1,0,11,0,Correct,0.845471888291468,5,S01,M,R,27,4
ChD_entr_4_BB,1,0,12,1,Wrong,0.695176651975016,6,S01,M,R,27,2
ChD_entr_4_BB,1,0,13,1,Correct,0.826670562416475,5,S01,M,R,27,1
ChD_entr_4_BB,1,0,14,1,Correct,0.751538986927153,4,S01,M,R,27,1
ChD_entr_4_BB,1,0,15,1,Correct,0.526091012452052,6,S01,M,R,27,1
ChD_entr_4_BB,1,0,16,1,Correct,0.770325294133327,6,S01,M,R,27,1
ChD_entr_4_BB,1,0,17,0,Correct,0.563672160198439,4,S01,M,R,27,4
ChD_entr_4_BB,1,0,18,0,Wrong,0.817284406147301,4,S01,M,R,27,3
ChD_entr_4_BB,1,0,19,0,Wrong,0.742136787989075,6,S01,M,R,27,3
ChD_entr_4_BB,1,0,20,1,Correct,0.760944940532208,4,S01,M,R,27,1
ChD_entr_4_BB,1,0,21,0,Wrong,0.713962276514467,6,S01,M,R,27,3
ChD_entr_4_BB,1,0,22,1,Correct,0.798502877609099,6,S01,M,R,27,1
ChD_entr_4_BB,1,0,23,0,Correct,0.742139177322606,4,S01,M,R,27,4
ChD_entr_4_BB,1,0,24,1,Wrong,0.591845989006324,4,S01,M,R,27,2
ChD_entr_4_BB,1,0,25,0,Wrong,0.789107505339161,5,S01,M,R,27,3
ChD_entr_4_BB,1,0,26,0,Wrong,0.75153181892656,4,S01,M,R,27,3
ChD_entr_4_BB,1,0,27,1,Wrong,0.751534549593453,4,S01,M,R,27,2
ChD_entr_4_BB,1,0,28,0,Wrong,0.751565610931175,6,S01,M,R,27,3
ChD_entr_4_BB,1,0,29,1,Wrong,0.713961935181105,5,S01,M,R,27,2
ChD_entr_4_BB,1,0,30,0,Wrong,0.836110649360417,6,S01,M,R,27,3
ChD_entr_4_BB,1,0,31,0,Correct,0.713957497846495,5,S01,M,R,27,4
ChD_entr_4_BB,1,0,32,0,Correct,0.732750290387448,5,S01,M,R,27,4
ChD_entr_4_BB,1,0,33,1,Correct,0.911221744846225,6,S01,M,R,27,1
ChD_entr_4_BB,1,0,34,1,Correct,0.620032447150406,6,S01,M,R,27,1
ChD_entr_4_BB,1,0,35,1,Correct,0.666993948498821,4,S01,M,R,27,1
ChD_entr_4_BB,1,0,36,1,Wrong,0.704567245577891,5,S01,M,R,27,2
ChD_entr_4_BB,1,0,37,0,Correct,0.629426454086897,6,S01,M,R,27,4
ChD_entr_4_BB,1,0,38,1,Wrong,0.836076857353983,5,S01,M,R,27,2
ChD_entr_4_BB,1,0,39,1,Correct,0.807895519212143,4,S01,M,R,27,1
ChD_entr_4_BB,1,0,40,0,Correct,0.704563832243366,4,S01,M,R,27,4
ChD_entr_4_BB,1,0,41,1,Wrong,0.70456690424453,6,S01,M,R,27,2
ChD_entr_4_BB,1,0,42,0,Correct,0.713965689848083,6,S01,M,R,27,4
ChD_entr_4_BB,1,0,43,0,Correct,0.666993265832098,4,S01,M,R,27,4
ChD_entr_4_BB,1,0,44,1,Wrong,0.620018793815034,6,S01,M,R,27,2
ChD_entr_4_BB,1,0,45,1,Correct,0.901835588577051,6,S01,M,R,27,1
ChD_entr_4_BB,1,0,46,0,Correct,0.836076857354892,5,S01,M,R,27,4
ChD_entr_4_BB,1,0,47,0,Correct,0.657598576227974,4,S01,M,R,27,4
ChD_entr_4_BB,1,0,48,1,Correct,0.779721007737535,6,S01,M,R,27,1
ChD_entr_4_BB,1,0,49,0,Correct,0.779705647734445,6,S01,M,R,27,4
ChD_entr_4_BB,1,0,50,1,Wrong,0.610634002879306,4,S01,M,R,27,2
ChD_entr_4_BB,1,0,51,0,Correct,0.638811586355077,5,S01,M,R,27,4
ChD_entr_4_BB,1,0,52,0,Correct,0.723348432782732,6,S01,M,R,27,4
ChD_entr_4_BB,1,0,53,0,Wrong,0.544888583660068,4,S01,M,R,27,3
ChD_entr_4_BB,1,0,54,0,Correct,0.695182454643073,4,S01,M,R,27,4
ChD_entr_4_BB,1,0,55,1,Wrong,0.657599600228059,4,S01,M,R,27,2
ChD_entr_4_BB,1,0,56,0,Correct,0.676381811433894,5,S01,M,R,27,4
ChD_entr_4_BB,1,0,57,0,Correct,0.582487480742166,4,S01,M,R,27,4
ChD_entr_4_BB,1,0,58,0,Correct,0.685786399705503,5,S01,M,R,27,4
ChD_entr_4_BB,1,0,59,0,Correct,0.601247846611041,5,S01,M,R,27,4
ChD_entr_4_BB,1,0,60,0,Correct,0.789166556015261,6,S01,M,R,27,4
ChD_entr_4_BB,1,0,61,1,Correct,0.638804418353575,4,S01,M,R,27,1
ChD_entr_4_BB,1,0,62,1,Correct,0.77971110906823,4,S01,M,R,27,1
ChD_entr_4_BB,1,0,63,0,Correct,0.817291574148803,5,S01,M,R,27,4
ChD_entr_4_BB,1,0,64,1,Wrong,0.648212419959709,5,S01,M,R,27,2
ChD_entr_4_BB,1,0,65,0,Correct,0.67638317676734,6,S01,M,R,27,4
ChD_entr_4_BB,1,0,66,1,Wrong,0.544878684990763,5,S01,M,R,27,2
ChD_entr_4_BB,1,0,67,0,Correct,0.685788447705672,6,S01,M,R,27,4
ChD_entr_4_BB,1,0,68,1,Correct,0.723360379451296,4,S01,M,R,27,1
ChD_entr_4_BB,1,0,69,0,Correct,0.591847695674041,4,S01,M,R,27,4
ChD_entr_4_BB,1,0,70,0,Correct,0.657599600228968,4,S01,M,R,27,4
ChD_entr_4_BB,1,0,71,1,Wrong,0.723358331451127,5,S01,M,R,27,2
ChD_entr_4_BB,1,0,72,1,Wrong,0.883046550703984,5,S01,M,R,27,2
ChD_entr_4_BB,2,7,1,0,Correct,0.638828311691614,5,S01,M,R,27,4
ChD_entr_4_BB,2,7,2,1,Wrong,0.573067191135015,6,S01,M,R,27,2
ChD_entr_4_BB,2,7,3,0,Correct,0.554268595926915,6,S01,M,R,27,4
ChD_entr_4_BB,2,7,4,1,Correct,0.666990193830934,6,S01,M,R,27,1
ChD_entr_4_BB,2,7,5,1,Wrong,0.807892105877618,5,S01,M,R,27,2
ChD_entr_4_BB,2,7,6,0,Correct,0.685809610375909,4,S01,M,R,27,4
ChD_entr_4_BB,2,7,7,0,Correct,0.516700760181629,5,S01,M,R,27,4
ChD_entr_4_BB,2,7,8,0,Wrong,0.817291574148803,5,S01,M,R,27,3
ChD_entr_4_BB,2,7,9,0,Correct,0.591837114338014,6,S01,M,R,27,4
ChD_entr_4_BB,2,7,10,1,Correct,0.638812951689433,6,S01,M,R,27,1
ChD_entr_4_BB,2,7,11,0,Correct,0.51670314951516,5,S01,M,R,27,4
ChD_entr_4_BB,2,7,12,1,Wrong,0.601232827941312,6,S01,M,R,27,2
ChD_entr_4_BB,2,7,13,1,Correct,0.629418944752033,4,S01,M,R,27,1
ChD_entr_4_BB,2,7,14,1,Wrong,0.685782986370978,5,S01,M,R,27,2
ChD_entr_4_BB,2,7,15,0,Correct,0.666992924498736,4,S01,M,R,27,4
ChD_entr_4_BB,2,7,16,0,Correct,0.629424064753366,6,S01,M,R,27,4
ChD_entr_4_BB,2,7,17,1,Correct,0.657603354895946,4,S01,M,R,27,1
ChD_entr_4_BB,2,7,18,1,Wrong,0.732750290387448,4,S01,M,R,27,2
ChD_entr_4_BB,2,7,19,0,Correct,0.779710426401507,4,S01,M,R,27,4
ChD_entr_4_BB,2,7,20,0,Correct,0.573066849801653,5,S01,M,R,27,4
ChD_entr_4_BB,2,7,21,1,Wrong,0.507309825245393,5,S01,M,R,27,2
ChD_entr_4_BB,2,7,22,0,Wrong,0.573057975133343,4,S01,M,R,27,3
ChD_entr_4_BB,2,7,23,1,Wrong,0.770329390134575,6,S01,M,R,27,2
ChD_entr_4_BB,2,7,24,0,Correct,0.610640146881633,6,S01,M,R,27,4
ChD_entr_4_BB,2,7,25,0,Correct,0.591843258339432,6,S01,M,R,27,4
ChD_entr_4_BB,2,7,26,1,Wrong,0.544881074325203,6,S01,M,R,27,2
ChD_entr_4_BB,2,7,27,1,Wrong,0.610624786877634,6,S01,M,R,27,2
ChD_entr_4_BB,2,7,28,1,Wrong,0.601232145275499,4,S01,M,R,27,2
ChD_entr_4_BB,2,7,29,0,Correct,0.704605133583755,4,S01,M,R,27,4
ChD_entr_4_BB,2,7,30,1,Wrong,0.535492528722498,6,S01,M,R,27,2
ChD_entr_4_BB,2,7,31,0,Correct,0.666983025830341,6,S01,M,R,27,4
ChD_entr_4_BB,2,7,32,1,Correct,0.610636392213746,4,S01,M,R,27,1
ChD_entr_4_BB,2,7,33,0,Correct,0.657597893561251,6,S01,M,R,27,4
ChD_entr_4_BB,2,7,34,1,Correct,0.742153854658973,6,S01,M,R,27,1
ChD_entr_4_BB,2,7,35,0,Correct,0.535478534052854,4,S01,M,R,27,4
ChD_entr_4_BB,2,7,36,0,Correct,0.544879708991757,5,S01,M,R,27,4
ChD_entr_4_BB,2,7,37,1,Correct,0.591846671673957,4,S01,M,R,27,1
ChD_entr_4_BB,2,7,38,1,Wrong,0.713960228514297,6,S01,M,R,27,2
ChD_entr_4_BB,2,7,39,0,Correct,0.526095791119114,4,S01,M,R,27,4
ChD_entr_4_BB,2,7,40,1,Correct,0.713957156514043,4,S01,M,R,27,1
ChD_entr_4_BB,2,7,41,0,Correct,0.638812269021801,5,S01,M,R,27,4
ChD_entr_4_BB,2,7,42,1,Correct,0.676381128767171,5,S01,M,R,27,1
ChD_entr_4_BB,2,7,43,0,Correct,0.638849815695212,5,S01,M,R,27,4
ChD_entr_4_BB,2,7,44,1,Correct,0.760916609860469,4,S01,M,R,27,1
ChD_entr_4_BB,2,7,45,0,Correct,0.629417238085225,5,S01,M,R,27,4
ChD_entr_4_BB,2,7,46,1,Wrong,0.535490139388967,6,S01,M,R,27,2
ChD_entr_4_BB,2,7,47,1,Correct,0.620028009815796,4,S01,M,R,27,1
ChD_entr_4_BB,2,7,48,0,Wrong,0.516697688181375,5,S01,M,R,27,3
ChD_entr_4_BB,2,7,49,1,Wrong,0.676395464770176,4,S01,M,R,27,2
ChD_entr_4_BB,2,7,50,1,Correct,0.620025961816536,5,S01,M,R,27,1
ChD_entr_4_BB,2,7,51,1,Correct,0.657625882899629,5,S01,M,R,27,1
ChD_entr_4_BB,2,7,52,0,Correct,0.685775818370384,4,S01,M,R,27,4
ChD_entr_4_BB,2,7,53,0,Correct,0.610634344213577,4,S01,M,R,27,4
ChD_entr_4_BB,2,7,54,1,Wrong,0.789103750671275,5,S01,M,R,27,2
ChD_entr_4_BB,2,7,55,0,Correct,0.582457102071166,5,S01,M,R,27,4
ChD_entr_4_BB,2,7,56,0,Correct,0.807890399211719,5,S01,M,R,27,4
ChD_entr_4_BB,2,7,57,0,Correct,0.573051148466111,4,S01,M,R,27,4
ChD_entr_4_BB,2,7,58,0,Correct,0.676425160774452,6,S01,M,R,27,4
ChD_entr_4_BB,2,7,59,0,Correct,0.873656981101194,4,S01,M,R,27,4
ChD_entr_4_BB,2,7,60,1,Wrong,0.742178089329463,5,S01,M,R,27,2
ChD_entr_4_BB,2,7,61,1,Correct,2.24507208448642,5,S01,M,R,27,1
ChD_entr_4_BB,2,7,62,0,Correct,0.67638966210121,6,S01,M,R,27,4
ChD_entr_4_BB,2,7,63,1,Wrong,0.836074468021361,5,S01,M,R,27,2
ChD_entr_4_BB,2,7,64,1,Correct,0.713954767179603,5,S01,M,R,27,1
ChD_entr_4_BB,2,7,65,1,Wrong,0.873644010432545,4,S01,M,R,27,2
ChD_entr_4_BB,2,7,66,0,Correct,0.582455395404359,4,S01,M,R,27,4
ChD_entr_4_BB,2,7,67,1,Wrong,0.648210030626178,4,S01,M,R,27,2
ChD_entr_4_BB,2,7,68,1,Correct,0.695176310641655,5,S01,M,R,27,1
ChD_entr_4_BB,2,7,69,0,Correct,0.648213102627342,6,S01,M,R,27,4
ChD_entr_4_BB,2,7,70,0,Correct,0.760926849863135,6,S01,M,R,27,4
ChD_entr_4_BB,2,7,71,0,Correct,0.732750290387448,6,S01,M,R,27,4
ChD_entr_4_BB,2,7,72,1,Wrong,0.751531477592289,6,S01,M,R,27,2
ChD_entr_4_BB,3,0,1,1,Wrong,0.704567928243705,4,S01,M,R,27,2
ChD_entr_4_BB,3,0,2,1,Correct,0.58244481406924,5,S01,M,R,27,1
ChD_entr_4_BB,3,0,3,1,Correct,0.854865212561235,5,S01,M,R,27,1
ChD_entr_4_BB,3,0,4,1,Wrong,0.666994972498906,4,S01,M,R,27,2
ChD_entr_4_BB,3,0,5,1,Correct,0.676393758102458,6,S01,M,R,27,1
ChD_entr_4_BB,3,0,6,1,Wrong,0.648224707961635,6,S01,M,R,27,2
ChD_entr_4_BB,3,0,7,1,Correct,0.563669429531547,4,S01,M,R,27,1
ChD_entr_4_BB,3,0,8,1,Wrong,0.760927191195587,4,S01,M,R,27,2
ChD_entr_4_BB,3,0,9,1,Wrong,0.563664650864484,5,S01,M,R,27,2
ChD_entr_4_BB,3,0,10,0,Wrong,0.742138494655883,6,S01,M,R,27,3
ChD_entr_4_BB,3,0,11,1,Correct,0.65759106689402,5,S01,M,R,27,1
ChD_entr_4_BB,3,0,12,0,Correct,0.544879026324124,4,S01,M,R,27,4
ChD_entr_4_BB,3,0,13,1,Correct,0.582502499411894,4,S01,M,R,27,1
ChD_entr_4_BB,3,0,14,1,Correct,0.685774453036938,6,S01,M,R,27,1
ChD_entr_4_BB,3,0,15,1,Correct,0.676383859434063,4,S01,M,R,27,1
ChD_entr_4_BB,3,0,16,0,Wrong,0.873648789100516,6,S01,M,R,27,3
ChD_entr_4_BB,3,0,17,1,Correct,0.638820461024297,4,S01,M,R,27,1
ChD_entr_4_BB,3,0,18,1,Correct,0.657602330895861,4,S01,M,R,27,1
ChD_entr_4_BB,3,0,19,0,Wrong,0.638807490354738,5,S01,M,R,27,3
ChD_entr_4_BB,3,0,20,0,Correct,0.676385566101781,4,S01,M,R,27,4
ChD_entr_4_BB,3,0,21,0,Correct,0.657598234894613,4,S01,M,R,27,4
ChD_entr_4_BB,3,0,22,1,Correct,0.629420992753112,6,S01,M,R,27,1
ChD_entr_4_BB,3,0,23,1,Wrong,0.901828079243096,6,S01,M,R,27,2
ChD_entr_4_BB,3,0,24,0,Correct,0.629428160753705,5,S01,M,R,27,4
ChD_entr_4_BB,3,0,25,1,Correct,0.63880544235366,5,S01,M,R,27,1
ChD_entr_4_BB,3,0,26,1,Wrong,0.976963068065124,6,S01,M,R,27,2
ChD_entr_4_BB,3,0,27,1,Correct,0.629419627419666,6,S01,M,R,27,1
ChD_entr_4_BB,3,0,28,0,Correct,0.704566562910259,5,S01,M,R,27,4
ChD_entr_4_BB,3,0,29,1,Wrong,0.854876135230625,5,S01,M,R,27,2
ChD_entr_4_BB,3,0,30,1,Correct,0.929996105382925,4,S01,M,R,27,1
ChD_entr_4_BB,3,0,31,0,Correct,0.798528477613945,6,S01,M,R,27,4
ChD_entr_4_BB,3,0,32,1,Correct,0.676385566101781,4,S01,M,R,27,1
ChD_entr_4_BB,3,0,33,0,Correct,0.7797131570684,5,S01,M,R,27,4
ChD_entr_4_BB,3,0,34,1,Correct,0.760922753861887,6,S01,M,R,27,1
ChD_entr_4_BB,3,0,35,1,Correct,0.685776159703746,5,S01,M,R,27,1
ChD_entr_4_BB,3,0,36,1,Wrong,0.666984391163787,5,S01,M,R,27,2
ChD_entr_4_BB,3,0,37,0,Correct,0.648202179957952,5,S01,M,R,27,4
ChD_entr_4_BB,3,0,38,0,Correct,0.573067191135015,5,S01,M,R,27,4
ChD_entr_4_BB,3,0,39,0,Correct,0.657598576227974,6,S01,M,R,27,4
ChD_entr_4_BB,3,0,40,0,Correct,0.666994631165544,6,S01,M,R,27,4
ChD_entr_4_BB,3,0,41,1,Wrong,0.66699804449916,5,S01,M,R,27,2
ChD_entr_4_BB,3,0,42,0,Correct,0.535486043388628,4,S01,M,R,27,4
ChD_entr_4_BB,3,0,43,1,Correct,0.723356966117681,5,S01,M,R,27,1
ChD_entr_4_BB,3,0,44,0,Correct,0.591845306339601,4,S01,M,R,27,4
ChD_entr_4_BB,3,0,45,1,Correct,0.657606085562838,4,S01,M,R,27,1
ChD_entr_4_BB,3,0,46,1,Wrong,0.770318126132734,6,S01,M,R,27,2
ChD_entr_4_BB,3,0,47,0,Correct,0.573061729801229,6,S01,M,R,27,4
ChD_entr_4_BB,3,0,48,0,Correct,0.535586054071755,6,S01,M,R,27,4
ChD_entr_4_BB,3,0,49,0,Correct,0.770327000800134,6,S01,M,R,27,4
ChD_entr_4_BB,3,0,50,1,Correct,0.76092992186339,5,S01,M,R,27,1
ChD_entr_4_BB,3,0,51,0,Correct,0.648202862624676,5,S01,M,R,27,4
ChD_entr_4_BB,3,0,52,0,Correct,0.563666698863744,4,S01,M,R,27,4
ChD_entr_4_BB,3,0,53,1,Wrong,0.573064460468122,6,S01,M,R,27,2
ChD_entr_4_BB,3,0,54,0,Correct,0.638803735687761,4,S01,M,R,27,4
ChD_entr_4_BB,3,0,55,0,Correct,0.610631613546684,6,S01,M,R,27,4
ChD_entr_4_BB,3,0,56,1,Wrong,0.79850765627707,5,S01,M,R,27,2
ChD_entr_4_BB,3,0,57,1,Correct,0.713962276514467,6,S01,M,R,27,1
ChD_entr_4_BB,3,0,58,1,Correct,0.760919340528271,4,S01,M,R,27,1
ChD_entr_4_BB,3,0,59,0,Wrong,0.535486043388628,5,S01,M,R,27,3
ChD_entr_4_BB,3,0,60,0,Correct,0.620016404481503,5,S01,M,R,27,4
ChD_entr_4_BB,3,0,61,0,Correct,0.657598576227974,5,S01,M,R,27,4
ChD_entr_4_BB,3,0,62,0,Correct,0.68577923170491,4,S01,M,R,27,4
ChD_entr_4_BB,3,0,63,0,Correct,0.648207982626009,5,S01,M,R,27,4
ChD_entr_4_BB,3,0,64,0,Correct,0.685778207703916,5,S01,M,R,27,4
ChD_entr_4_BB,3,0,65,0,Correct,0.995750057938931,6,S01,M,R,27,4
ChD_entr_4_BB,3,0,66,0,Correct,0.620060777822146,6,S01,M,R,27,4
ChD_entr_4_BB,3,0,67,0,Correct,0.854864529894512,6,S01,M,R,27,4
ChD_entr_4_BB,3,0,68,0,Correct,0.535494576722667,4,S01,M,R,27,4
ChD_entr_4_BB,3,0,69,0,Correct,0.554299315932185,4,S01,M,R,27,4
ChD_entr_4_BB,3,0,70,0,Correct,0.601296657286293,4,S01,M,R,27,4
ChD_entr_4_BB,3,0,71,1,Correct,0.760922412528525,6,S01,M,R,27,1
ChD_entr_4_BB,3,0,72,0,Correct,0.836073102687005,4,S01,M,R,27,4
ChD_entr_4_BB,4,4,1,0,Correct,0.432164596421608,6,S01,M,R,27,4
ChD_entr_4_BB,4,4,2,1,Correct,0.516700760181629,4,S01,M,R,27,1
ChD_entr_4_BB,4,4,3,1,Wrong,0.704559736243027,6,S01,M,R,27,2
ChD_entr_4_BB,4,4,4,0,Correct,0.488520104706513,5,S01,M,R,27,4
ChD_entr_4_BB,4,4,5,1,Wrong,0.544878684991672,5,S01,M,R,27,2
ChD_entr_4_BB,4,4,6,0,Correct,0.638812610356072,5,S01,M,R,27,4
ChD_entr_4_BB,4,4,7,1,Correct,0.582452323404104,6,S01,M,R,27,1
ChD_entr_4_BB,4,4,8,0,Correct,0.601240337277086,5,S01,M,R,27,4
ChD_entr_4_BB,4,4,9,0,Correct,0.460344227897549,5,S01,M,R,27,4
ChD_entr_4_BB,4,4,10,1,Correct,0.56366567486366,5,S01,M,R,27,1
ChD_entr_4_BB,4,4,11,1,Wrong,0.554274398594061,5,S01,M,R,27,2
ChD_entr_4_BB,4,4,12,1,Wrong,0.535487750054526,6,S01,M,R,27,2
ChD_entr_4_BB,4,4,13,1,Correct,0.591848037007403,6,S01,M,R,27,1
ChD_entr_4_BB,4,4,14,0,Correct,0.563676256199688,4,S01,M,R,27,4
ChD_entr_4_BB,4,4,15,1,Correct,0.535487067388713,4,S01,M,R,27,1
ChD_entr_4_BB,4,4,16,0,Correct,0.544880050324209,6,S01,M,R,27,4
ChD_entr_4_BB,4,4,17,1,Correct,0.61063297888013,5,S01,M,R,27,1
ChD_entr_4_BB,4,4,18,1,Wrong,0.62942065141975,5,S01,M,R,27,2
ChD_entr_4_BB,4,4,19,0,Correct,0.526092036451228,6,S01,M,R,27,4
ChD_entr_4_BB,4,4,20,0,Correct,0.657592090894104,4,S01,M,R,27,4
ChD_entr_4_BB,4,4,21,0,Correct,0.760936065864807,6,S01,M,R,27,4
ChD_entr_4_BB,4,4,22,0,Correct,0.53548433672091,4,S01,M,R,27,4
ChD_entr_4_BB,4,4,23,0,Correct,0.488518739372157,4,S01,M,R,27,4
ChD_entr_4_BB,4,4,24,0,Correct,0.526091695117866,5,S01,M,R,27,4
ChD_entr_4_BB,4,4,25,1,Wrong,0.582457102071166,6,S01,M,R,27,2
ChD_entr_4_BB,4,4,26,1,Wrong,0.573061047134506,6,S01,M,R,27,2
ChD_entr_4_BB,4,4,27,1,Correct,0.535492870055859,5,S01,M,R,27,1
ChD_entr_4_BB,4,4,28,0,Correct,0.723354235449879,6,S01,M,R,27,4
ChD_entr_4_BB,4,4,29,1,Wrong,0.667036273838385,5,S01,M,R,27,2
ChD_entr_4_BB,4,4,30,0,Correct,0.620025279148904,6,S01,M,R,27,4
ChD_entr_4_BB,4,4,31,0,Correct,0.441559286024822,6,S01,M,R,27,4
ChD_entr_4_BB,4,4,32,0,Correct,0.638805442354569,4,S01,M,R,27,4
ChD_entr_4_BB,4,4,33,1,Correct,0.695166753306621,6,S01,M,R,27,1
ChD_entr_4_BB,4,4,34,1,Correct,0.648206617291653,4,S01,M,R,27,1
ChD_entr_4_BB,4,4,35,1,Correct,0.695173238641401,6,S01,M,R,27,1
ChD_entr_4_BB,4,4,36,1,Correct,0.65758901889385,4,S01,M,R,27,1
ChD_entr_4_BB,4,4,37,1,Correct,0.713960228514297,4,S01,M,R,27,1
ChD_entr_4_BB,4,4,38,1,Correct,0.704565880243536,4,S01,M,R,27,1
ChD_entr_4_BB,4,4,39,0,Correct,0.779721690403348,5,S01,M,R,27,4
ChD_entr_4_BB,4,4,40,0,Correct,0.648214126626517,4,S01,M,R,27,4
ChD_entr_4_BB,4,4,41,1,Wrong,0.516704173516155,5,S01,M,R,27,2
ChD_entr_4_BB,4,4,42,0,Wrong,0.648206275959201,4,S01,M,R,27,3
ChD_entr_4_BB,4,4,43,0,Correct,0.666998385832521,5,S01,M,R,27,4
ChD_entr_4_BB,4,4,44,0,Correct,0.629424406086728,4,S01,M,R,27,4
ChD_entr_4_BB,4,4,45,0,Correct,0.638803053021038,6,S01,M,R,27,4
ChD_entr_4_BB,4,4,46,0,Correct,0.479122343102135,5,S01,M,R,27,4
ChD_entr_4_BB,4,4,47,0,Correct,0.629413483418248,6,S01,M,R,27,4
ChD_entr_4_BB,4,4,48,1,Correct,0.648198425290975,4,S01,M,R,27,1
ChD_entr_4_BB,4,4,49,0,Correct,0.544899164995186,4,S01,M,R,27,4
ChD_entr_4_BB,4,4,50,1,Wrong,0.742141225323685,6,S01,M,R,27,2
ChD_entr_4_BB,4,4,51,1,Correct,0.610623421545097,5,S01,M,R,27,1
ChD_entr_4_BB,4,4,52,1,Correct,1.12725898704921,4,S01,M,R,27,1
ChD_entr_4_BB,4,4,53,0,Correct,0.976965116066203,6,S01,M,R,27,4
ChD_entr_4_BB,4,4,54,0,Wrong,0.798498440274489,5,S01,M,R,27,3
ChD_entr_4_BB,4,4,55,1,Correct,0.573061047134506,5,S01,M,R,27,1
ChD_entr_4_BB,4,4,56,0,Correct,0.666994631165544,5,S01,M,R,27,4
ChD_entr_4_BB,4,4,57,0,Correct,0.582453688736641,6,S01,M,R,27,4
ChD_entr_4_BB,4,4,58,1,Wrong,0.629410070084632,5,S01,M,R,27,2
ChD_entr_4_BB,4,4,59,1,Correct,0.526097497785922,5,S01,M,R,27,1
ChD_entr_4_BB,4,4,60,0,Correct,0.422763080151162,5,S01,M,R,27,4
ChD_entr_4_BB,4,4,61,0,Correct,0.638819095689942,5,S01,M,R,27,4
ChD_entr_4_BB,4,4,62,1,Correct,0.676390686102204,4,S01,M,R,27,1
ChD_entr_4_BB,4,4,63,0,Correct,0.535490480722328,6,S01,M,R,27,4
ChD_entr_4_BB,4,4,64,1,Wrong,0.648204227958122,6,S01,M,R,27,2
ChD_entr_4_BB,4,4,65,1,Correct,0.742138835989244,6,S01,M,R,27,1
ChD_entr_4_BB,4,4,66,0,Correct,0.554277811928587,4,S01,M,R,27,4
ChD_entr_4_BB,4,4,67,1,Correct,0.976979452068299,4,S01,M,R,27,1
ChD_entr_4_BB,4,4,68,1,Correct,1.02394539075041,6,S01,M,R,27,1
ChD_entr_4_BB,4,4,69,0,Correct,0.554276787928502,4,S01,M,R,27,4
ChD_entr_4_BB,4,4,70,1,Correct,0.657605402896115,4,S01,M,R,27,1
ChD_entr_4_BB,4,4,71,1,Correct,0.789109894672692,4,S01,M,R,27,1
ChD_entr_4_BB,4,4,72,0,Correct,0.591839845005816,4,S01,M,R,27,4
ChD_entr_4_BB,5,7,1,1,Correct,0.610639122880639,5,S01,M,R,27,1
ChD_entr_4_BB,5,7,2,1,Correct,0.601246822610956,5,S01,M,R,27,1
ChD_entr_4_BB,5,7,3,1,Wrong,0.441555531356935,5,S01,M,R,27,2
ChD_entr_4_BB,5,7,4,1,Correct,0.629417238085225,4,S01,M,R,27,1
ChD_entr_4_BB,5,7,5,0,Correct,0.55427200926144,6,S01,M,R,27,4
ChD_entr_4_BB,5,7,6,0,Correct,0.488512595371649,5,S01,M,R,27,4
ChD_entr_4_BB,5,7,7,0,Correct,0.497912063641925,4,S01,M,R,27,4
ChD_entr_4_BB,5,7,8,0,Correct,0.488523518040129,5,S01,M,R,27,4
ChD_entr_4_BB,5,7,9,0,Correct,0.469728677499006,5,S01,M,R,27,4
ChD_entr_4_BB,5,7,10,1,Correct,0.563666357531292,4,S01,M,R,27,1
ChD_entr_4_BB,5,7,11,0,Correct,0.535491163389051,4,S01,M,R,27,4
ChD_entr_4_BB,5,7,12,0,Correct,0.554277811928587,6,S01,M,R,27,4
ChD_entr_4_BB,5,7,13,0,Correct,0.582478947408126,4,S01,M,R,27,4
ChD_entr_4_BB,5,7,14,0,Correct,0.695173579973853,4,S01,M,R,27,4
ChD_entr_4_BB,5,7,15,0,Correct,0.516691202847505,5,S01,M,R,27,4
ChD_entr_4_BB,5,7,16,0,Correct,0.479153404440767,5,S01,M,R,27,4
ChD_entr_4_BB,5,7,17,1,Correct,0.629418944752942,5,S01,M,R,27,1
ChD_entr_4_BB,5,7,18,0,Correct,0.507302998578161,5,S01,M,R,27,4
ChD_entr_4_BB,5,7,19,0,Correct,0.713999140520245,6,S01,M,R,27,4
ChD_entr_4_BB,5,7,20,0,Correct,0.488518739373067,4,S01,M,R,27,4
ChD_entr_4_BB,5,7,21,1,Correct,0.61062410421182,6,S01,M,R,27,1
ChD_entr_4_BB,5,7,22,1,Correct,0.760934017863728,4,S01,M,R,27,1
ChD_entr_4_BB,5,7,23,1,Wrong,0.836079246688423,6,S01,M,R,27,2
ChD_entr_4_BB,5,7,24,1,Correct,0.620025620482265,5,S01,M,R,27,1
ChD_entr_4_BB,5,7,25,1,Correct,1.00517273687961,6,S01,M,R,27,1
ChD_entr_4_BB,5,7,26,0,Correct,0.666992583165375,6,S01,M,R,27,4
ChD_entr_4_BB,5,7,27,1,Wrong,0.911210822177745,6,S01,M,R,27,2
ChD_entr_4_BB,5,7,28,1,Correct,0.610647997548949,4,S01,M,R,27,1
ChD_entr_4_BB,5,7,29,0,Wrong,0.948787873923793,4,S01,M,R,27,3
ChD_entr_4_BB,5,7,30,1,Wrong,0.939397962988551,4,S01,M,R,27,2
ChD_entr_4_BB,5,7,31,0,Correct,0.488523176706767,4,S01,M,R,27,4
ChD_entr_4_BB,5,7,32,1,Wrong,0.836077881354977,5,S01,M,R,27,2
ChD_entr_4_BB,5,7,33,1,Wrong,0.666990876497657,6,S01,M,R,27,2
ChD_entr_4_BB,5,7,34,1,Wrong,0.657602672229223,5,S01,M,R,27,2
ChD_entr_4_BB,5,7,35,1,Correct,1.04271633795441,4,S01,M,R,27,1
ChD_entr_4_BB,5,7,36,0,Correct,0.742132691987826,6,S01,M,R,27,4
ChD_entr_4_BB,5,7,37,0,Correct,0.629423040753281,5,S01,M,R,27,4
ChD_entr_4_BB,5,7,38,0,Correct,0.554271667928078,6,S01,M,R,27,4
ChD_entr_4_BB,5,7,39,0,Correct,0.695174262641485,4,S01,M,R,27,4
ChD_entr_4_BB,5,7,40,1,Correct,0.845465402957598,4,S01,M,R,27,1
ChD_entr_4_BB,5,7,41,1,Correct,0.80788391387603,5,S01,M,R,27,1
ChD_entr_4_BB,5,7,42,0,Correct,0.620025961815627,5,S01,M,R,27,4
ChD_entr_4_BB,5,7,43,0,Correct,0.591852133007742,6,S01,M,R,27,4
ChD_entr_4_BB,5,7,44,1,Correct,0.958183928860453,4,S01,M,R,27,1
ChD_entr_4_BB,5,7,45,1,Wrong,0.695171190640322,6,S01,M,R,27,2
ChD_entr_4_BB,5,7,46,1,Correct,0.648207982625099,4,S01,M,R,27,1
ChD_entr_4_BB,5,7,47,0,Correct,0.620016745814864,4,S01,M,R,27,4
ChD_entr_4_BB,5,7,48,1,Correct,0.704570317578145,5,S01,M,R,27,1
ChD_entr_4_BB,5,7,49,0,Correct,0.648223001294828,6,S01,M,R,27,4
ChD_entr_4_BB,5,7,50,1,Wrong,1.08968910330375,6,S01,M,R,27,2
ChD_entr_4_BB,5,7,51,1,Correct,0.620027668482435,4,S01,M,R,27,1
ChD_entr_4_BB,5,7,52,0,Correct,0.441550411356511,6,S01,M,R,27,4
ChD_entr_4_BB,5,7,53,0,Correct,0.469732432165983,4,S01,M,R,27,4
ChD_entr_4_BB,5,7,54,1,Wrong,0.695171531974593,6,S01,M,R,27,2
ChD_entr_4_BB,5,7,55,1,Correct,0.760922753861887,4,S01,M,R,27,1
ChD_entr_4_BB,5,7,56,1,Wrong,1.19301874227145,6,S01,M,R,27,2
ChD_entr_4_BB,5,7,57,0,Correct,0.685785375705418,5,S01,M,R,27,4
ChD_entr_4_BB,5,7,58,1,Correct,0.66699155916438,5,S01,M,R,27,1
ChD_entr_4_BB,5,7,59,1,Correct,1.02394197741589,6,S01,M,R,27,1
ChD_entr_4_BB,5,7,60,0,Correct,0.657598576227974,5,S01,M,R,27,4
ChD_entr_4_BB,5,7,61,0,Correct,0.526084868450635,6,S01,M,R,27,4
ChD_entr_4_BB,5,7,62,1,Correct,0.629419968752118,6,S01,M,R,27,1
ChD_entr_4_BB,5,7,63,1,Correct,1.47482324903245,4,S01,M,R,27,1
ChD_entr_4_BB,5,7,64,1,Wrong,0.666988828497488,6,S01,M,R,27,2
ChD_entr_4_BB,5,7,65,0,Correct,0.760927191196497,6,S01,M,R,27,4
ChD_entr_4_BB,5,7,66,0,Correct,0.526098180452645,6,S01,M,R,27,4
ChD_entr_4_BB,5,7,67,0,Correct,0.479126780435836,4,S01,M,R,27,4
ChD_entr_4_BB,5,7,68,0,Correct,0.883037676035674,5,S01,M,R,27,4
ChD_entr_4_BB,5,7,69,1,Correct,0.901819204574785,5,S01,M,R,27,1
ChD_entr_4_BB,5,7,70,0,Correct,0.967582373131554,5,S01,M,R,27,4
ChD_entr_4_BB,5,7,71,0,Correct,0.488541950042563,4,S01,M,R,27,4
ChD_entr_4_BB,5,7,72,1,Correct,0.789110577339416,5,S01,M,R,27,1
ChD_entr_4_BB,6,4,1,0,Correct,0.573060364466874,6,S01,M,R,27,4
ChD_entr_4_BB,6,4,2,1,Correct,0.967574181129967,5,S01,M,R,27,1
ChD_entr_4_BB,6,4,3,1,Wrong,0.62003108181696,4,S01,M,R,27,2
ChD_entr_4_BB,6,4,4,1,Correct,0.770318126131824,4,S01,M,R,27,1
ChD_entr_4_BB,6,4,5,0,Correct,0.554274057261609,6,S01,M,R,27,4
ChD_entr_4_BB,6,4,6,1,Correct,0.620024596482181,5,S01,M,R,27,1
ChD_entr_4_BB,6,4,7,1,Wrong,0.939402400322251,6,S01,M,R,27,2
ChD_entr_4_BB,6,4,8,1,Wrong,0.779705647734445,4,S01,M,R,27,2
ChD_entr_4_BB,6,4,9,0,Correct,0.723349798116178,5,S01,M,R,27,4
ChD_entr_4_BB,6,4,10,0,Correct,0.629418603418671,4,S01,M,R,27,4
ChD_entr_4_BB,6,4,11,0,Correct,0.723355259449963,4,S01,M,R,27,4
ChD_entr_4_BB,6,4,12,0,Correct,0.601239654610363,4,S01,M,R,27,4
ChD_entr_4_BB,6,4,13,1,Wrong,0.582457443404528,5,S01,M,R,27,2
ChD_entr_4_BB,6,4,14,1,Correct,0.695178358641824,6,S01,M,R,27,1
ChD_entr_4_BB,6,4,15,0,Correct,0.770322563466434,4,S01,M,R,27,4
ChD_entr_4_BB,6,4,16,1,Wrong,0.901823983241848,6,S01,M,R,27,2
ChD_entr_4_BB,6,4,17,1,Correct,0.563674890865332,4,S01,M,R,27,1
ChD_entr_4_BB,6,4,18,0,Correct,0.666995313832267,4,S01,M,R,27,4
ChD_entr_4_BB,6,4,19,0,Correct,0.70456690424362,6,S01,M,R,27,4
ChD_entr_4_BB,6,4,20,0,Correct,0.610626493545351,4,S01,M,R,27,4
ChD_entr_4_BB,6,4,21,0,Correct,0.469734821500424,4,S01,M,R,27,4
ChD_entr_4_BB,6,4,22,1,Correct,0.657601648229138,5,S01,M,R,27,1
ChD_entr_4_BB,6,4,23,0,Correct,0.563663285530129,4,S01,M,R,27,4
ChD_entr_4_BB,6,4,24,0,Correct,0.582444131401608,6,S01,M,R,27,4
ChD_entr_4_BB,6,4,25,0,Correct,0.573063777801399,5,S01,M,R,27,4
ChD_entr_4_BB,6,4,26,1,Wrong,0.87366278376925,6,S01,M,R,27,2
ChD_entr_4_BB,6,4,27,0,Correct,0.638805101021207,4,S01,M,R,27,4
ChD_entr_4_BB,6,4,28,1,Wrong,0.742132009322013,6,S01,M,R,27,2
ChD_entr_4_BB,6,4,29,0,Correct,0.535489115388882,5,S01,M,R,27,4
ChD_entr_4_BB,6,4,30,1,Correct,0.66702227917056,4,S01,M,R,27,1
ChD_entr_4_BB,6,4,31,0,Correct,0.535483995387549,5,S01,M,R,27,4
ChD_entr_4_BB,6,4,32,0,Correct,0.507308118579494,6,S01,M,R,27,4
ChD_entr_4_BB,6,4,33,0,Correct,0.516703832182793,6,S01,M,R,27,4
ChD_entr_4_BB,6,4,34,1,Wrong,0.591849061007488,6,S01,M,R,27,2
ChD_entr_4_BB,6,4,35,1,Correct,0.591838821005731,4,S01,M,R,27,1
ChD_entr_4_BB,6,4,36,0,Correct,0.582453006069918,5,S01,M,R,27,4
ChD_entr_4_BB,6,4,37,1,Wrong,0.638814999689603,6,S01,M,R,27,2
ChD_entr_4_BB,6,4,38,1,Correct,0.657599258894697,5,S01,M,R,27,1
ChD_entr_4_BB,6,4,39,1,Wrong,0.676404680771848,6,S01,M,R,27,2
ChD_entr_4_BB,6,4,40,0,Correct,0.563673184198524,6,S01,M,R,27,4
ChD_entr_4_BB,6,4,41,1,Correct,0.713957839180766,6,S01,M,R,27,1
ChD_entr_4_BB,6,4,42,0,Correct,0.789105457338082,6,S01,M,R,27,4
ChD_entr_4_BB,6,4,43,1,Correct,0.911222086178677,4,S01,M,R,27,1
ChD_entr_4_BB,6,4,44,1,Correct,0.70457134157823,4,S01,M,R,27,1
ChD_entr_4_BB,6,4,45,0,Correct,0.497911380976111,6,S01,M,R,27,4
ChD_entr_4_BB,6,4,46,0,Correct,0.573056609799896,4,S01,M,R,27,4
ChD_entr_4_BB,6,4,47,0,Correct,0.704564173577637,5,S01,M,R,27,4
ChD_entr_4_BB,6,4,48,1,Wrong,0.854853948559394,5,S01,M,R,27,2
ChD_entr_4_BB,6,4,49,0,Correct,0.713960569846749,5,S01,M,R,27,4
ChD_entr_4_BB,6,4,50,0,Correct,0.535522907394406,5,S01,M,R,27,4
ChD_entr_4_BB,6,4,51,1,Correct,1.08970104997232,5,S01,M,R,27,1
ChD_entr_4_BB,6,4,52,1,Wrong,0.610632978879221,6,S01,M,R,27,2
ChD_entr_4_BB,6,4,53,0,Correct,0.770315054132479,6,S01,M,R,27,4
ChD_entr_4_BB,6,4,54,0,Correct,0.770318467465186,5,S01,M,R,27,4
ChD_entr_4_BB,6,4,55,1,Wrong,0.760919340527362,6,S01,M,R,27,2
ChD_entr_4_BB,6,4,56,1,Wrong,0.826679095750515,5,S01,M,R,27,2
ChD_entr_4_BB,6,4,57,1,Correct,0.88305644937238,5,S01,M,R,27,1
ChD_entr_4_BB,6,4,58,1,Correct,0.77971554640284,5,S01,M,R,27,1
ChD_entr_4_BB,6,4,59,0,Correct,0.516708269516494,5,S01,M,R,27,4
ChD_entr_4_BB,6,4,60,1,Wrong,0.526097156452561,5,S01,M,R,27,2
ChD_entr_4_BB,6,4,61,0,Correct,0.526100228452815,5,S01,M,R,27,4
ChD_entr_4_BB,6,4,62,1,Correct,0.742145662657385,5,S01,M,R,27,1
ChD_entr_4_BB,6,4,63,1,Wrong,0.488521811373321,6,S01,M,R,27,2
ChD_entr_4_BB,6,4,64,0,Correct,0.676387955434402,6,S01,M,R,27,4
ChD_entr_4_BB,6,4,65,0,Correct,0.479124732435666,5,S01,M,R,27,4
ChD_entr_4_BB,6,4,66,1,Wrong,0.854860433893264,4,S01,M,R,27,2
ChD_entr_4_BB,6,4,67,1,Correct,0.789127644009313,4,S01,M,R,27,1
ChD_entr_4_BB,6,4,68,0,Correct,0.610637416213831,4,S01,M,R,27,4
ChD_entr_4_BB,6,4,69,1,Correct,0.610671208219355,4,S01,M,R,27,1
ChD_entr_4_BB,6,4,70,0,Correct,0.723345702115839,6,S01,M,R,27,4
ChD_entr_4_BB,6,4,71,1,Correct,0.676401608770684,4,S01,M,R,27,1
ChD_entr_4_BB,6,4,72,0,Correct,0.535479216720487,4,S01,M,R,27,4
ChD_entr_4_BB,1,4,1,0,Correct,0.529032104791186,4,S02,M,R,34,4
ChD_entr_4_BB,1,4,2,1,Correct,0.538491675046171,6,S02,M,R,34,1
ChD_entr_4_BB,1,4,3,1,Correct,0.614062423729411,4,S02,M,R,34,1
ChD_entr_4_BB,1,4,4,1,Correct,0.651827659400879,6,S02,M,R,34,1
ChD_entr_4_BB,1,4,5,1,Wrong,0.7651885610928,6,S02,M,R,34,2
ChD_entr_4_BB,1,4,6,1,Correct,0.632944017565969,4,S02,M,R,34,1
ChD_entr_4_BB,1,4,7,0,Correct,0.717963413832986,4,S02,M,R,34,4
ChD_entr_4_BB,1,4,8,0,Correct,0.49124741311447,4,S02,M,R,34,4
ChD_entr_4_BB,1,4,9,0,Correct,0.57627227071891,6,S02,M,R,34,4
ChD_entr_4_BB,1,4,10,1,Correct,0.727401821417734,6,S02,M,R,34,1
ChD_entr_4_BB,1,4,11,0,Correct,0.689625321745334,6,S02,M,R,34,4
ChD_entr_4_BB,1,4,12,0,Correct,0.566831132469088,5,S02,M,R,34,4
ChD_entr_4_BB,1,4,13,1,Correct,0.585712384970466,4,S02,M,R,34,1
ChD_entr_4_BB,1,4,14,0,Correct,0.55737975421478,4,S02,M,R,34,4
ChD_entr_4_BB,1,4,15,1,Correct,0.717983211169776,6,S02,M,R,34,1
ChD_entr_4_BB,1,4,16,1,Wrong,0.585711702303743,5,S02,M,R,34,2
ChD_entr_4_BB,1,4,17,0,Correct,0.623489567311408,5,S02,M,R,34,4
ChD_entr_4_BB,1,4,18,1,Correct,0.614043309057524,6,S02,M,R,34,1
ChD_entr_4_BB,1,4,19,0,Correct,0.500698108702054,5,S02,M,R,34,4
ChD_entr_4_BB,1,4,20,1,Correct,0.538482117710228,4,S02,M,R,34,1
ChD_entr_4_BB,1,4,21,1,Correct,1.00132590272617,4,S02,M,R,34,1
ChD_entr_4_BB,1,4,22,1,Correct,0.642390617149576,4,S02,M,R,34,1
ChD_entr_4_BB,1,4,23,0,Correct,0.51014470828748,6,S02,M,R,34,4
ChD_entr_4_BB,1,4,24,0,Correct,0.708513059580582,6,S02,M,R,34,4
ChD_entr_4_BB,1,4,25,0,Wrong,0.79364509587147,4,S02,M,R,34,3
ChD_entr_4_BB,1,4,26,1,Wrong,0.595157277890903,6,S02,M,R,34,2
ChD_entr_4_BB,1,4,27,0,Correct,0.670727002572239,6,S02,M,R,34,4
ChD_entr_4_BB,1,4,28,1,Correct,0.585718870304336,4,S02,M,R,34,1
ChD_entr_4_BB,1,4,29,0,Correct,0.642387203815961,6,S02,M,R,34,4
ChD_entr_4_BB,1,4,30,0,Correct,0.661289618987576,6,S02,M,R,34,4
ChD_entr_4_BB,1,4,31,1,Wrong,0.89742866728775,6,S02,M,R,34,2
ChD_entr_4_BB,1,4,32,1,Correct,0.859643975614672,6,S02,M,R,34,1
ChD_entr_4_BB,1,4,33,0,Correct,0.81240619901866,6,S02,M,R,34,4
ChD_entr_4_BB,1,4,34,1,Correct,0.500699132702139,5,S02,M,R,34,1
ChD_entr_4_BB,1,4,35,1,Correct,0.71795556316567,4,S02,M,R,34,1
ChD_entr_4_BB,1,4,36,0,Correct,0.9352075562955,4,S02,M,R,34,4
ChD_entr_4_BB,1,4,37,1,Correct,0.632941286897258,5,S02,M,R,34,1
ChD_entr_4_BB,1,4,38,1,Correct,0.58572433163994,5,S02,M,R,34,1
ChD_entr_4_BB,1,4,39,0,Wrong,0.595158984555892,4,S02,M,R,34,3
ChD_entr_4_BB,1,4,40,0,Correct,0.982443284891342,5,S02,M,R,34,4
ChD_entr_4_BB,1,4,41,0,Correct,0.557377023547888,5,S02,M,R,34,4
ChD_entr_4_BB,1,4,42,0,Wrong,0.708514424914029,4,S02,M,R,34,3
ChD_entr_4_BB,1,4,43,1,Wrong,0.689615764409391,4,S02,M,R,34,2
ChD_entr_4_BB,1,4,44,0,Correct,1.68144011287346,6,S02,M,R,34,4
ChD_entr_4_BB,1,4,45,1,Correct,0.566827377800291,6,S02,M,R,34,1
ChD_entr_4_BB,1,4,46,0,Correct,0.746284097921016,4,S02,M,R,34,4
ChD_entr_4_BB,1,4,47,1,Correct,0.680171895490857,5,S02,M,R,34,1
ChD_entr_4_BB,1,4,48,0,Correct,0.651841312737161,6,S02,M,R,34,4
ChD_entr_4_BB,1,4,49,1,Correct,0.585709654303573,4,S02,M,R,34,1
ChD_entr_4_BB,1,4,50,0,Correct,0.557380778214865,5,S02,M,R,34,4
ChD_entr_4_BB,1,4,51,1,Correct,0.954103486133245,5,S02,M,R,34,1
ChD_entr_4_BB,1,4,52,1,Wrong,0.642379694482006,6,S02,M,R,34,2
ChD_entr_4_BB,1,4,53,0,Correct,0.547961826635365,6,S02,M,R,34,4
ChD_entr_4_BB,1,4,54,0,Correct,0.510145049620842,5,S02,M,R,34,4
ChD_entr_4_BB,1,4,55,1,Correct,0.99189022581013,5,S02,M,R,34,1
ChD_entr_4_BB,1,4,56,1,Correct,0.670722223905177,5,S02,M,R,34,1
ChD_entr_4_BB,1,4,57,1,Correct,0.538483483043674,5,S02,M,R,34,1
ChD_entr_4_BB,1,4,58,1,Wrong,0.651832779401302,5,S02,M,R,34,2
ChD_entr_4_BB,1,4,59,1,Correct,1.06748145449506,6,S02,M,R,34,1
ChD_entr_4_BB,1,4,60,0,Correct,0.529037224791609,5,S02,M,R,34,4
ChD_entr_4_BB,1,4,61,0,Correct,0.576268516051932,5,S02,M,R,34,4
ChD_entr_4_BB,1,4,62,0,Correct,0.717954197832223,5,S02,M,R,34,4
ChD_entr_4_BB,1,4,63,1,Correct,0.576265444051678,5,S02,M,R,34,1
ChD_entr_4_BB,1,4,64,0,Correct,0.519590966539545,4,S02,M,R,34,4
ChD_entr_4_BB,1,4,65,0,Correct,0.623488201977962,5,S02,M,R,34,4
ChD_entr_4_BB,1,4,66,0,Correct,0.491296223790632,4,S02,M,R,34,4
ChD_entr_4_BB,1,4,67,0,Correct,0.415765411114335,5,S02,M,R,34,4
ChD_entr_4_BB,1,4,68,1,Correct,0.425138282688204,4,S02,M,R,34,1
ChD_entr_4_BB,1,4,69,1,Correct,0.462908638360095,4,S02,M,R,34,1
ChD_entr_4_BB,1,4,70,0,Correct,0.510152900288158,6,S02,M,R,34,4
ChD_entr_4_BB,1,4,71,1,Correct,0.73685285833868,5,S02,M,R,34,1
ChD_entr_4_BB,1,4,72,0,Correct,0.510137881620249,4,S02,M,R,34,4
ChD_entr_4_BB,2,0,1,0,Timeout,NaN,6,S02,M,R,34,0
ChD_entr_4_BB,2,0,2,0,Correct,0.85964329294613,5,S02,M,R,34,4
ChD_entr_4_BB,2,0,3,0,Correct,0.46291409969388,4,S02,M,R,34,4
ChD_entr_4_BB,2,0,4,1,Correct,0.510147780287734,4,S02,M,R,34,1
ChD_entr_4_BB,2,0,5,1,Correct,0.736851151671872,6,S02,M,R,34,1
ChD_entr_4_BB,2,0,6,0,Correct,0.453467500108454,4,S02,M,R,34,4
ChD_entr_4_BB,2,0,7,1,Correct,0.585708630303489,5,S02,M,R,34,1
ChD_entr_4_BB,2,0,8,0,Correct,0.538474949709635,4,S02,M,R,34,4
ChD_entr_4_BB,2,0,9,1,Correct,0.595158984557711,6,S02,M,R,34,1
ChD_entr_4_BB,2,0,10,1,Correct,0.614058327727253,5,S02,M,R,34,1
ChD_entr_4_BB,2,0,11,0,Correct,0.576263396051509,5,S02,M,R,34,4
ChD_entr_4_BB,2,0,12,1,Correct,0.585717163639347,5,S02,M,R,34,1
ChD_entr_4_BB,2,0,13,1,Correct,0.793515389181339,5,S02,M,R,34,1
ChD_entr_4_BB,2,0,14,1,Correct,0.519583115872229,4,S02,M,R,34,1
ChD_entr_4_BB,2,0,15,0,Correct,0.547924279961953,4,S02,M,R,34,4
ChD_entr_4_BB,2,0,16,0,Correct,0.491251850451808,5,S02,M,R,34,4
ChD_entr_4_BB,2,0,17,1,Wrong,0.859636466277079,4,S02,M,R,34,2
ChD_entr_4_BB,2,0,18,1,Correct,0.604602170807702,5,S02,M,R,34,1
ChD_entr_4_BB,2,0,19,0,Correct,0.670716762571392,4,S02,M,R,34,4
ChD_entr_4_BB,2,0,20,0,Correct,0.595157960555807,6,S02,M,R,34,4
ChD_entr_4_BB,2,0,21,1,Correct,0.462919219694304,4,S02,M,R,34,1
ChD_entr_4_BB,2,0,22,1,Correct,0.632940604230535,5,S02,M,R,34,1
ChD_entr_4_BB,2,0,23,0,Correct,0.56682055113306,6,S02,M,R,34,4
ChD_entr_4_BB,2,0,24,0,Correct,0.614047063726321,4,S02,M,R,34,4
ChD_entr_4_BB,2,0,25,0,Correct,0.62349434597847,6,S02,M,R,34,4
ChD_entr_4_BB,2,0,26,1,Wrong,0.897429691289653,5,S02,M,R,34,2
ChD_entr_4_BB,2,0,27,0,Correct,0.557373610214272,5,S02,M,R,34,4
ChD_entr_4_BB,2,0,28,1,Wrong,1.56808467251532,6,S02,M,R,34,2
ChD_entr_4_BB,2,0,29,1,Correct,0.576266468051763,4,S02,M,R,34,1
ChD_entr_4_BB,2,0,30,0,Correct,0.519588235872652,4,S02,M,R,34,4
ChD_entr_4_BB,2,0,31,1,Correct,0.529028350122389,5,S02,M,R,34,1
ChD_entr_4_BB,2,0,32,1,Wrong,0.547927010628846,5,S02,M,R,34,2
ChD_entr_4_BB,2,0,33,0,Correct,0.604607290809945,6,S02,M,R,34,4
ChD_entr_4_BB,2,0,34,0,Correct,0.510136857620164,5,S02,M,R,34,4
ChD_entr_4_BB,2,0,35,1,Wrong,0.462916489027412,6,S02,M,R,34,2
ChD_entr_4_BB,2,0,36,1,Wrong,0.566821233799783,6,S02,M,R,34,2
ChD_entr_4_BB,2,0,37,1,Correct,0.557373951547634,6,S02,M,R,34,1
ChD_entr_4_BB,2,0,38,0,Correct,0.547930423962462,4,S02,M,R,34,4
ChD_entr_4_BB,2,0,39,1,Correct,0.453469548108624,5,S02,M,R,34,1
ChD_entr_4_BB,2,0,40,1,Correct,0.708507256913436,4,S02,M,R,34,1
ChD_entr_4_BB,2,0,41,0,Correct,0.529039272791779,5,S02,M,R,34,4
ChD_entr_4_BB,2,0,42,1,Correct,0.6423912998163,4,S02,M,R,34,1
ChD_entr_4_BB,2,0,43,1,Correct,0.670726661238878,6,S02,M,R,34,1
ChD_entr_4_BB,2,0,44,0,Correct,0.557374292880995,6,S02,M,R,34,4
ChD_entr_4_BB,2,0,45,0,Correct,0.453463062774754,6,S02,M,R,34,4
ChD_entr_4_BB,2,0,46,0,Correct,0.434577372937856,5,S02,M,R,34,4
ChD_entr_4_BB,2,0,47,1,Correct,0.566810993798936,6,S02,M,R,34,1
ChD_entr_4_BB,2,0,48,0,Correct,0.576274318719079,5,S02,M,R,34,4
ChD_entr_4_BB,2,0,49,0,Correct,0.670723930571985,6,S02,M,R,34,4
ChD_entr_4_BB,2,0,50,1,Correct,0.434577372939675,4,S02,M,R,34,1
ChD_entr_4_BB,2,0,51,1,Wrong,0.529037907458333,4,S02,M,R,34,2
ChD_entr_4_BB,2,0,52,0,Correct,0.472358651279137,6,S02,M,R,34,4
ChD_entr_4_BB,2,0,53,1,Correct,0.642390958482938,4,S02,M,R,34,1
ChD_entr_4_BB,2,0,54,0,Correct,0.538489285710821,6,S02,M,R,34,4
ChD_entr_4_BB,2,0,55,1,Correct,0.547932813295993,6,S02,M,R,34,1
ChD_entr_4_BB,2,0,56,0,Correct,1.04856163132019,5,S02,M,R,34,4
ChD_entr_4_BB,2,0,57,1,Correct,0.585712384970466,5,S02,M,R,34,1
ChD_entr_4_BB,2,0,58,0,Correct,0.434568498268636,4,S02,M,R,34,4
ChD_entr_4_BB,2,0,59,0,Correct,0.529046440794191,5,S02,M,R,34,4
ChD_entr_4_BB,2,0,60,1,Wrong,0.453467158775093,6,S02,M,R,34,2
ChD_entr_4_BB,2,0,61,1,Correct,0.481809688200083,4,S02,M,R,34,1
ChD_entr_4_BB,2,0,62,0,Correct,0.585714774303997,4,S02,M,R,34,4
ChD_entr_4_BB,2,0,63,0,Wrong,0.462904883693118,4,S02,M,R,34,3
ChD_entr_4_BB,2,0,64,1,Wrong,0.736844666336183,4,S02,M,R,34,2
ChD_entr_4_BB,2,0,65,0,Correct,0.491246730449566,6,S02,M,R,34,4
ChD_entr_4_BB,2,0,66,0,Correct,0.651832096736398,5,S02,M,R,34,4
ChD_entr_4_BB,2,0,67,0,Correct,0.472360699279307,5,S02,M,R,34,4
ChD_entr_4_BB,2,0,68,1,Correct,0.491244341116035,6,S02,M,R,34,1
ChD_entr_4_BB,2,0,69,1,Wrong,0.595161032556061,6,S02,M,R,34,2
ChD_entr_4_BB,2,0,70,1,Correct,0.887979678368793,5,S02,M,R,34,1
ChD_entr_4_BB,2,0,71,0,Correct,0.491252191783351,6,S02,M,R,34,4
ChD_entr_4_BB,2,0,72,0,Correct,0.481802178864309,4,S02,M,R,34,4
ChD_entr_4_BB,3,0,1,0,Correct,0.500697426035331,5,S02,M,R,34,4
ChD_entr_4_BB,3,0,2,1,Wrong,0.746291948588332,6,S02,M,R,34,2
ChD_entr_4_BB,3,0,3,0,Correct,0.510145049620842,4,S02,M,R,34,4
ChD_entr_4_BB,3,0,4,0,Correct,0.453463062774754,4,S02,M,R,34,4
ChD_entr_4_BB,3,0,5,1,Wrong,0.472356261945606,6,S02,M,R,34,2
ChD_entr_4_BB,3,0,6,1,Correct,0.425130090685707,5,S02,M,R,34,1
ChD_entr_4_BB,3,0,7,0,Correct,0.614051842393383,6,S02,M,R,34,4
ChD_entr_4_BB,3,0,8,1,Correct,0.396799849263552,4,S02,M,R,34,1
ChD_entr_4_BB,3,0,9,1,Correct,0.869089551198194,4,S02,M,R,34,1
ChD_entr_4_BB,3,0,10,1,Correct,0.651834827401472,6,S02,M,R,34,1
ChD_entr_4_BB,3,0,11,0,Correct,0.491254581118701,6,S02,M,R,34,4
ChD_entr_4_BB,3,0,12,0,Correct,0.453472278777335,6,S02,M,R,34,4
ChD_entr_4_BB,3,0,13,1,Correct,0.566858097806471,4,S02,M,R,34,1
ChD_entr_4_BB,3,0,14,1,Correct,0.415677688433134,5,S02,M,R,34,1
ChD_entr_4_BB,3,0,15,1,Correct,0.585712043637104,6,S02,M,R,34,1
ChD_entr_4_BB,3,0,16,1,Correct,0.727401480084373,6,S02,M,R,34,1
ChD_entr_4_BB,3,0,17,0,Wrong,0.396801897265541,4,S02,M,R,34,3
ChD_entr_4_BB,3,0,18,0,Correct,0.774632088677972,6,S02,M,R,34,4
ChD_entr_4_BB,3,0,19,0,Correct,0.462916830360773,5,S02,M,R,34,4
ChD_entr_4_BB,3,0,20,1,Correct,0.510136516284983,4,S02,M,R,34,1
ChD_entr_4_BB,3,0,21,0,Correct,0.472354213945437,5,S02,M,R,34,4
ChD_entr_4_BB,3,0,22,0,Correct,0.53848041104342,4,S02,M,R,34,4
ChD_entr_4_BB,3,0,23,0,Correct,0.462926046363355,4,S02,M,R,34,4
ChD_entr_4_BB,3,0,24,1,Correct,0.444021583189751,4,S02,M,R,34,1
ChD_entr_4_BB,3,0,25,1,Correct,0.595164445889677,6,S02,M,R,34,1
ChD_entr_4_BB,3,0,26,0,Correct,0.491252874450074,5,S02,M,R,34,4
ChD_entr_4_BB,3,0,27,0,Correct,0.500698450035416,5,S02,M,R,34,4
ChD_entr_4_BB,3,0,28,0,Correct,0.434579079604664,5,S02,M,R,34,4
ChD_entr_4_BB,3,0,29,1,Correct,0.472364795279646,4,S02,M,R,34,1
ChD_entr_4_BB,3,0,30,1,Correct,0.406236550181493,4,S02,M,R,34,1
ChD_entr_4_BB,3,0,31,0,Correct,0.595159325889254,5,S02,M,R,34,4
ChD_entr_4_BB,3,0,32,1,Correct,0.519589601206099,5,S02,M,R,34,1
ChD_entr_4_BB,3,0,33,1,Correct,0.585712384970466,6,S02,M,R,34,1
ChD_entr_4_BB,3,0,34,1,Wrong,0.453471596110612,5,S02,M,R,34,2
ChD_entr_4_BB,3,0,35,1,Correct,0.566816455132721,5,S02,M,R,34,1
ChD_entr_4_BB,3,0,36,0,Correct,0.481809346864902,6,S02,M,R,34,4
ChD_entr_4_BB,3,0,37,0,Correct,0.406238598181662,4,S02,M,R,34,4
ChD_entr_4_BB,3,0,38,0,Correct,0.604605925476499,6,S02,M,R,34,4
ChD_entr_4_BB,3,0,39,1,Wrong,0.359008672254786,5,S02,M,R,34,2
ChD_entr_4_BB,3,0,40,0,Correct,0.557379412881419,5,S02,M,R,34,4
ChD_entr_4_BB,3,0,41,0,Correct,0.604596368140556,5,S02,M,R,34,4
ChD_entr_4_BB,3,0,42,1,Correct,0.472352165943448,5,S02,M,R,34,1
ChD_entr_4_BB,3,0,43,1,Correct,1.19025482243444,6,S02,M,R,34,1
ChD_entr_4_BB,3,0,44,0,Correct,0.444024313856644,6,S02,M,R,34,4
ChD_entr_4_BB,3,0,45,0,Correct,0.566823964466676,5,S02,M,R,34,4
ChD_entr_4_BB,3,0,46,0,Wrong,0.699067142661879,4,S02,M,R,34,3
ChD_entr_4_BB,3,0,47,1,Correct,0.670725978573973,4,S02,M,R,34,1
ChD_entr_4_BB,3,0,48,1,Correct,0.689609961742244,5,S02,M,R,34,1
ChD_entr_4_BB,3,0,49,0,Correct,0.538483824377036,4,S02,M,R,34,4
ChD_entr_4_BB,3,0,50,1,Wrong,0.604603194807787,4,S02,M,R,34,2
ChD_entr_4_BB,3,0,51,1,Correct,0.472360357945945,4,S02,M,R,34,1
ChD_entr_4_BB,3,0,52,0,Correct,0.500698108702054,5,S02,M,R,34,4
ChD_entr_4_BB,3,0,53,1,Correct,0.43458249293828,4,S02,M,R,34,1
ChD_entr_4_BB,3,0,54,1,Wrong,0.557378730214696,6,S02,M,R,34,2
ChD_entr_4_BB,3,0,55,0,Correct,0.3306716041654,4,S02,M,R,34,4
ChD_entr_4_BB,3,0,56,1,Correct,0.500705618037828,5,S02,M,R,34,1
ChD_entr_4_BB,3,0,57,0,Correct,0.519604619875827,6,S02,M,R,34,4
ChD_entr_4_BB,3,0,58,1,Correct,0.538484165710397,4,S02,M,R,34,1
ChD_entr_4_BB,3,0,59,1,Correct,0.491246389116204,6,S02,M,R,34,1
ChD_entr_4_BB,3,0,60,0,Correct,0.595158643224349,6,S02,M,R,34,4
ChD_entr_4_BB,3,0,61,0,Correct,0.67072529590725,6,S02,M,R,34,4
ChD_entr_4_BB,3,0,62,0,Correct,0.453473302775601,4,S02,M,R,34,4
ChD_entr_4_BB,3,0,63,1,Correct,0.491252533116713,5,S02,M,R,34,1
ChD_entr_4_BB,3,0,64,1,Wrong,0.623502196647605,6,S02,M,R,34,2
ChD_entr_4_BB,3,0,65,0,Correct,0.415686904433896,6,S02,M,R,34,4
ChD_entr_4_BB,3,0,66,1,Correct,0.368455954506935,5,S02,M,R,34,1
ChD_entr_4_BB,3,0,67,0,Correct,0.481805933531286,5,S02,M,R,34,4
ChD_entr_4_BB,3,0,68,0,Correct,0.481805592197925,6,S02,M,R,34,4
ChD_entr_4_BB,3,0,69,1,Correct,0.462915806360688,5,S02,M,R,34,1
ChD_entr_4_BB,3,0,70,0,Correct,0.453464086774839,4,S02,M,R,34,4
ChD_entr_4_BB,3,0,71,1,Wrong,0.359009354921509,6,S02,M,R,34,2
ChD_entr_4_BB,3,0,72,0,Correct,0.330670238831954,4,S02,M,R,34,4
ChD_entr_4_BB,4,4,1,1,Correct,0.5006994740355,5,S02,M,R,34,1
ChD_entr_4_BB,4,4,2,0,Wrong,0.453474668110866,5,S02,M,R,34,3
ChD_entr_4_BB,4,4,3,1,Correct,0.519595403873245,6,S02,M,R,34,1
ChD_entr_4_BB,4,4,4,0,Correct,0.557367124880402,4,S02,M,R,34,4
ChD_entr_4_BB,4,4,5,1,Correct,0.680175308826292,4,S02,M,R,34,1
ChD_entr_4_BB,4,4,6,1,Correct,0.708512718247221,6,S02,M,R,34,1
ChD_entr_4_BB,4,4,7,1,Correct,0.897434811290077,5,S02,M,R,34,1
ChD_entr_4_BB,4,4,8,1,Correct,0.670723247905262,4,S02,M,R,34,1
ChD_entr_4_BB,4,4,9,1,Correct,0.500691282034822,5,S02,M,R,34,1
ChD_entr_4_BB,4,4,10,0,Correct,0.349563438002806,6,S02,M,R,34,4
ChD_entr_4_BB,4,4,11,1,Correct,0.614071639730173,6,S02,M,R,34,1
ChD_entr_4_BB,4,4,12,0,Correct,0.670722565238539,5,S02,M,R,34,4
ChD_entr_4_BB,4,4,13,1,Correct,1.45474493349182,5,S02,M,R,34,1
ChD_entr_4_BB,4,4,14,1,Wrong,0.604598757474087,6,S02,M,R,34,2
ChD_entr_4_BB,4,4,15,0,Correct,0.632944017565969,5,S02,M,R,34,4
ChD_entr_4_BB,4,4,16,0,Correct,0.595153181888745,6,S02,M,R,34,4
ChD_entr_4_BB,4,4,17,0,Correct,0.500694695368438,4,S02,M,R,34,4
ChD_entr_4_BB,4,4,18,1,Correct,0.642382083815537,5,S02,M,R,34,1
ChD_entr_4_BB,4,4,19,1,Correct,0.481810029531625,4,S02,M,R,34,1
ChD_entr_4_BB,4,4,20,1,Correct,1.26581328311666,6,S02,M,R,34,1
ChD_entr_4_BB,4,4,21,1,Wrong,0.481842114869432,6,S02,M,R,34,2
ChD_entr_4_BB,4,4,22,1,Correct,0.529040979458587,4,S02,M,R,34,1
ChD_entr_4_BB,4,4,23,0,Correct,0.46291614769405,4,S02,M,R,34,4
ChD_entr_4_BB,4,4,24,0,Correct,0.41568553910045,5,S02,M,R,34,4
ChD_entr_4_BB,4,4,25,1,Correct,0.51015119362135,5,S02,M,R,34,1
ChD_entr_4_BB,4,4,26,0,Correct,0.359012768256944,6,S02,M,R,34,4
ChD_entr_4_BB,4,4,27,0,Correct,0.425136234686215,6,S02,M,R,34,4
ChD_entr_4_BB,4,4,28,0,Correct,0.415677688433134,5,S02,M,R,34,4
ChD_entr_4_BB,4,4,29,0,Correct,0.434586930273799,6,S02,M,R,34,4
ChD_entr_4_BB,4,4,30,1,Wrong,0.519613835878408,6,S02,M,R,34,2
ChD_entr_4_BB,4,4,31,1,Correct,0.632941286897258,4,S02,M,R,34,1
ChD_entr_4_BB,4,4,32,0,Correct,0.472360357945945,6,S02,M,R,34,4
ChD_entr_4_BB,4,4,33,0,Correct,0.529038248791694,4,S02,M,R,34,4
ChD_entr_4_BB,4,4,34,0,Correct,0.481807640198094,4,S02,M,R,34,4
ChD_entr_4_BB,4,4,35,0,Correct,0.481801154864224,6,S02,M,R,34,4
ChD_entr_4_BB,4,4,36,1,Wrong,0.755731721504708,4,S02,M,R,34,2
ChD_entr_4_BB,4,4,37,1,Correct,0.500702204702393,4,S02,M,R,34,1
ChD_entr_4_BB,4,4,38,1,Correct,0.802967791435731,4,S02,M,R,34,1
ChD_entr_4_BB,4,4,39,0,Correct,0.491283594454435,6,S02,M,R,34,4
ChD_entr_4_BB,4,4,40,1,Correct,0.632946065566139,5,S02,M,R,34,1
ChD_entr_4_BB,4,4,41,0,Correct,0.453469206775262,4,S02,M,R,34,4
ChD_entr_4_BB,4,4,42,0,Correct,0.444033188525864,4,S02,M,R,34,4
ChD_entr_4_BB,4,4,43,1,Correct,0.462911027693626,4,S02,M,R,34,1
ChD_entr_4_BB,4,4,44,0,Correct,0.510144366954119,5,S02,M,R,34,4
ChD_entr_4_BB,4,4,45,0,Correct,0.529028008789028,4,S02,M,R,34,4
ChD_entr_4_BB,4,4,46,0,Correct,0.557374634216176,5,S02,M,R,34,4
ChD_entr_4_BB,4,4,47,1,Correct,0.50070152203567,6,S02,M,R,34,1
ChD_entr_4_BB,4,4,48,0,Correct,0.510143684287396,4,S02,M,R,34,4
ChD_entr_4_BB,4,4,49,1,Correct,1.50196871541819,4,S02,M,R,34,1
ChD_entr_4_BB,4,4,50,1,Correct,0.793522557181932,5,S02,M,R,34,1
ChD_entr_4_BB,4,4,51,1,Wrong,0.500696743368608,6,S02,M,R,34,2
ChD_entr_4_BB,4,4,52,1,Wrong,0.500698108702054,6,S02,M,R,34,2
ChD_entr_4_BB,4,4,53,1,Correct,0.840752824443989,6,S02,M,R,34,1
ChD_entr_4_BB,4,4,54,0,Correct,0.529034494126536,5,S02,M,R,34,4
ChD_entr_4_BB,4,4,55,1,Correct,0.632936849563557,5,S02,M,R,34,1
ChD_entr_4_BB,4,4,56,0,Correct,0.651838240736906,4,S02,M,R,34,4
ChD_entr_4_BB,4,4,57,0,Correct,0.415682467100196,5,S02,M,R,34,4
ChD_entr_4_BB,4,4,58,0,Correct,0.510147097621011,5,S02,M,R,34,4
ChD_entr_4_BB,4,4,59,0,Correct,0.736844666336183,6,S02,M,R,34,4
ChD_entr_4_BB,4,4,60,0,Correct,0.472359675279222,4,S02,M,R,34,4
ChD_entr_4_BB,4,4,61,0,Correct,0.481803544197755,6,S02,M,R,34,4
ChD_entr_4_BB,4,4,62,1,Correct,0.585712384972285,6,S02,M,R,34,1
ChD_entr_4_BB,4,4,63,0,Correct,0.434587271607161,6,S02,M,R,34,4
ChD_entr_4_BB,4,4,64,1,Correct,0.510144025622576,5,S02,M,R,34,1
ChD_entr_4_BB,4,4,65,1,Correct,0.61405115972666,5,S02,M,R,34,1
ChD_entr_4_BB,4,4,66,0,Correct,0.529039272791779,5,S02,M,R,34,4
ChD_entr_4_BB,4,4,67,0,Correct,0.47236138194603,4,S02,M,R,34,4
ChD_entr_4_BB,4,4,68,1,Correct,0.632939921563811,4,S02,M,R,34,1
ChD_entr_4_BB,4,4,69,1,Correct,0.70850828091352,5,S02,M,R,34,1
ChD_entr_4_BB,4,4,70,1,Correct,0.632949137566393,4,S02,M,R,34,1
ChD_entr_4_BB,4,4,71,0,Correct,0.55736644221186,6,S02,M,R,34,4
ChD_entr_4_BB,4,4,72,0,Wrong,1.16191263434463,5,S02,M,R,34,3
ChD_entr_4_BB,5,7,1,1,Correct,0.472355920612245,4,S02,M,R,34,1
ChD_entr_4_BB,5,7,2,0,Correct,0.529077843465275,5,S02,M,R,34,4
ChD_entr_4_BB,5,7,3,0,Correct,0.50070152203567,6,S02,M,R,34,4
ChD_entr_4_BB,5,7,4,0,Correct,0.453469206775262,4,S02,M,R,34,4
ChD_entr_4_BB,5,7,5,1,Correct,0.661280061653451,5,S02,M,R,34,1
ChD_entr_4_BB,5,7,6,1,Correct,0.547925303962038,4,S02,M,R,34,1
ChD_entr_4_BB,5,7,7,0,Correct,0.491258335783859,6,S02,M,R,34,4
ChD_entr_4_BB,5,7,8,1,Correct,0.566822940466591,5,S02,M,R,34,1
ChD_entr_4_BB,5,7,9,1,Correct,0.576264078718232,4,S02,M,R,34,1
ChD_entr_4_BB,5,7,10,0,Correct,0.755738889508939,6,S02,M,R,34,4
ChD_entr_4_BB,5,7,11,0,Correct,0.500691623366365,5,S02,M,R,34,4
ChD_entr_4_BB,5,7,12,1,Correct,0.632947772231128,5,S02,M,R,34,1
ChD_entr_4_BB,5,7,13,1,Wrong,0.746287852587993,4,S02,M,R,34,2
ChD_entr_4_BB,5,7,14,0,Correct,0.585712384970466,5,S02,M,R,34,4
ChD_entr_4_BB,5,7,15,0,Correct,0.510180206960722,4,S02,M,R,34,4
ChD_entr_4_BB,5,7,16,1,Wrong,0.784075274929783,6,S02,M,R,34,2
ChD_entr_4_BB,5,7,17,1,Correct,0.557373951549453,5,S02,M,R,34,1
ChD_entr_4_BB,5,7,18,1,Correct,0.859642268946045,6,S02,M,R,34,1
ChD_entr_4_BB,5,7,19,1,Correct,0.670729050574228,4,S02,M,R,34,1
ChD_entr_4_BB,5,7,20,1,Correct,0.935209604295669,6,S02,M,R,34,1
ChD_entr_4_BB,5,7,21,0,Correct,0.585704192969788,5,S02,M,R,34,4
ChD_entr_4_BB,5,7,22,0,Correct,0.56681406579919,4,S02,M,R,34,4
ChD_entr_4_BB,5,7,23,1,Correct,0.595165128558219,4,S02,M,R,34,1
ChD_entr_4_BB,5,7,24,0,Correct,0.576267150718486,6,S02,M,R,34,4
ChD_entr_4_BB,5,7,25,0,Correct,0.444017487189412,4,S02,M,R,34,4
ChD_entr_4_BB,5,7,26,1,Correct,0.793521533183666,6,S02,M,R,34,1
ChD_entr_4_BB,5,7,27,0,Correct,0.604602170807702,4,S02,M,R,34,4
ChD_entr_4_BB,5,7,28,0,Correct,0.425129066685622,5,S02,M,R,34,4
ChD_entr_4_BB,5,7,29,0,Correct,0.481805933531286,6,S02,M,R,34,4
ChD_entr_4_BB,5,7,30,1,Correct,0.585712384970466,6,S02,M,R,34,1
ChD_entr_4_BB,5,7,31,0,Correct,0.415679395099942,4,S02,M,R,34,4
ChD_entr_4_BB,5,7,32,1,Correct,0.557381119550046,6,S02,M,R,34,1
ChD_entr_4_BB,5,7,33,0,Correct,0.462914441027242,5,S02,M,R,34,4
ChD_entr_4_BB,5,7,34,1,Correct,0.595166493891666,6,S02,M,R,34,1
ChD_entr_4_BB,5,7,35,1,Correct,0.651834144734748,5,S02,M,R,34,1
ChD_entr_4_BB,5,7,36,0,Correct,0.453473985444143,5,S02,M,R,34,4
ChD_entr_4_BB,5,7,37,0,Correct,0.689609961742244,4,S02,M,R,34,4
ChD_entr_4_BB,5,7,38,0,Correct,0.510145390954203,6,S02,M,R,34,4
ChD_entr_4_BB,5,7,39,1,Correct,0.538473243042827,4,S02,M,R,34,1
ChD_entr_4_BB,5,7,40,1,Correct,1.42640274540201,6,S02,M,R,34,1
ChD_entr_4_BB,5,7,41,1,Wrong,1.17135035926083,6,S02,M,R,34,2
ChD_entr_4_BB,5,7,42,1,Correct,0.680176332824558,4,S02,M,R,34,1
ChD_entr_4_BB,5,7,43,0,Correct,0.510136174951622,5,S02,M,R,34,4
ChD_entr_4_BB,5,7,44,0,Correct,0.821856553271064,6,S02,M,R,34,4
ChD_entr_4_BB,5,7,45,1,Correct,0.717952832498777,6,S02,M,R,34,1
ChD_entr_4_BB,5,7,46,1,Wrong,0.510146414954288,6,S02,M,R,34,2
ChD_entr_4_BB,5,7,47,1,Correct,0.982433727555399,4,S02,M,R,34,1
ChD_entr_4_BB,5,7,48,0,Correct,0.481811394866891,4,S02,M,R,34,4
ChD_entr_4_BB,5,7,49,1,Correct,0.557368831545391,5,S02,M,R,34,1
ChD_entr_4_BB,5,7,50,1,Correct,0.708503502246458,5,S02,M,R,34,1
ChD_entr_4_BB,5,7,51,0,Correct,0.5951606912227,5,S02,M,R,34,4
ChD_entr_4_BB,5,7,52,1,Correct,0.604608997474934,4,S02,M,R,34,1
ChD_entr_4_BB,5,7,53,1,Correct,0.755742985507459,5,S02,M,R,34,1
ChD_entr_4_BB,5,7,54,0,Correct,0.52903756612679,4,S02,M,R,34,4
ChD_entr_4_BB,5,7,55,0,Correct,0.595149085888406,5,S02,M,R,34,4
ChD_entr_4_BB,5,7,56,1,Correct,0.576270564053921,6,S02,M,R,34,1
ChD_entr_4_BB,5,7,57,1,Correct,0.699058950661201,5,S02,M,R,34,1
ChD_entr_4_BB,5,7,58,0,Correct,0.472354213945437,6,S02,M,R,34,4
ChD_entr_4_BB,5,7,59,1,Correct,0.585714432972454,5,S02,M,R,34,1
ChD_entr_4_BB,5,7,60,0,Correct,0.46290966236018,4,S02,M,R,34,4
ChD_entr_4_BB,5,7,61,0,Correct,0.387357004345104,5,S02,M,R,34,4
ChD_entr_4_BB,5,7,62,0,Correct,0.453464769441562,4,S02,M,R,34,4
ChD_entr_4_BB,5,7,63,1,Correct,0.774634478011503,5,S02,M,R,34,1
ChD_entr_4_BB,5,7,64,1,Wrong,0.566824305800037,4,S02,M,R,34,2
ChD_entr_4_BB,5,7,65,1,Correct,0.708513742249124,5,S02,M,R,34,1
ChD_entr_4_BB,5,7,66,0,Correct,0.529037566124971,6,S02,M,R,34,4
ChD_entr_4_BB,5,7,67,0,Correct,0.491251850449989,6,S02,M,R,34,4
ChD_entr_4_BB,5,7,68,0,Correct,0.519587894539291,6,S02,M,R,34,4
ChD_entr_4_BB,5,7,69,1,Correct,0.547932471962631,4,S02,M,R,34,1
ChD_entr_4_BB,5,7,70,0,Correct,0.45346647610837,6,S02,M,R,34,4
ChD_entr_4_BB,5,7,71,0,Correct,0.614051842393383,5,S02,M,R,34,4
ChD_entr_4_BB,5,7,72,0,Correct,0.377900847425553,4,S02,M,R,34,4
ChD_entr_4_BB,6,7,1,1,Correct,0.632941628230619,5,S02,M,R,34,1
ChD_entr_4_BB,6,7,2,0,Correct,0.576258276051085,4,S02,M,R,34,4
ChD_entr_4_BB,6,7,3,0,Correct,0.510143342954034,6,S02,M,R,34,4
ChD_entr_4_BB,6,7,4,0,Correct,0.755740596175747,6,S02,M,R,34,4
ChD_entr_4_BB,6,7,5,0,Correct,0.547960461301918,6,S02,M,R,34,4
ChD_entr_4_BB,6,7,6,1,Wrong,0.406238256848301,6,S02,M,R,34,2
ChD_entr_4_BB,6,7,7,1,Correct,0.566819868468156,6,S02,M,R,34,1
ChD_entr_4_BB,6,7,8,0,Correct,0.491255263783605,4,S02,M,R,34,4
ChD_entr_4_BB,6,7,9,1,Correct,0.821860649273222,6,S02,M,R,34,1
ChD_entr_4_BB,6,7,10,1,Correct,0.878527958782943,5,S02,M,R,34,1
ChD_entr_4_BB,6,7,11,0,Correct,0.746292289921694,4,S02,M,R,34,4
ChD_entr_4_BB,6,7,12,1,Correct,0.963559301719433,6,S02,M,R,34,1
ChD_entr_4_BB,6,7,13,1,Correct,0.699054171994139,6,S02,M,R,34,1
ChD_entr_4_BB,6,7,14,0,Correct,0.585735936976053,5,S02,M,R,34,4
ChD_entr_4_BB,6,7,15,1,Correct,0.585712384970466,5,S02,M,R,34,1
ChD_entr_4_BB,6,7,16,1,Correct,0.453477398777759,4,S02,M,R,34,1
ChD_entr_4_BB,6,7,17,0,Correct,0.576267150718486,6,S02,M,R,34,4
ChD_entr_4_BB,6,7,18,1,Correct,0.661278354986644,4,S02,M,R,34,1
ChD_entr_4_BB,6,7,19,1,Correct,0.812413708352615,4,S02,M,R,34,1
ChD_entr_4_BB,6,7,20,0,Correct,0.595154547222192,4,S02,M,R,34,4
ChD_entr_4_BB,6,7,21,0,Correct,0.802961988766765,4,S02,M,R,34,4
ChD_entr_4_BB,6,7,22,1,Correct,0.717960341832732,6,S02,M,R,34,1
ChD_entr_4_BB,6,7,23,1,Correct,0.614069250396642,5,S02,M,R,34,1
ChD_entr_4_BB,6,7,24,0,Correct,0.57626578538504,5,S02,M,R,34,4
ChD_entr_4_BB,6,7,25,1,Correct,0.765185147759185,6,S02,M,R,34,1
ChD_entr_4_BB,6,7,26,1,Correct,0.840758627111136,5,S02,M,R,34,1
ChD_entr_4_BB,6,7,27,1,Correct,0.661282792322163,5,S02,M,R,34,1
ChD_entr_4_BB,6,7,28,0,Correct,0.680172919490942,5,S02,M,R,34,4
ChD_entr_4_BB,6,7,29,1,Correct,0.670725295905431,5,S02,M,R,34,1
ChD_entr_4_BB,6,7,30,1,Correct,1.16192321567883,6,S02,M,R,34,1
ChD_entr_4_BB,6,7,31,1,Correct,1.55864558226385,4,S02,M,R,34,1
ChD_entr_4_BB,6,7,32,0,Correct,0.557366783545222,6,S02,M,R,34,4
ChD_entr_4_BB,6,7,33,1,Correct,0.793521191848486,4,S02,M,R,34,1
ChD_entr_4_BB,6,7,34,0,Correct,0.434576348937771,5,S02,M,R,34,4
ChD_entr_4_BB,6,7,35,0,Correct,0.576257934715904,5,S02,M,R,34,4
ChD_entr_4_BB,6,7,36,0,Correct,0.50070800736954,4,S02,M,R,34,4
ChD_entr_4_BB,6,7,37,0,Correct,0.547934861296162,5,S02,M,R,34,4
ChD_entr_4_BB,6,7,38,1,Correct,1.33194016288136,5,S02,M,R,34,1
ChD_entr_4_BB,6,7,39,0,Correct,0.614054231726914,6,S02,M,R,34,4
ChD_entr_4_BB,6,7,40,0,Correct,0.500698791368777,6,S02,M,R,34,4
ChD_entr_4_BB,6,7,41,1,Correct,0.56681850313289,4,S02,M,R,34,1
ChD_entr_4_BB,6,7,42,0,Correct,0.519595062541703,5,S02,M,R,34,4
ChD_entr_4_BB,6,7,43,0,Correct,0.585716139639262,6,S02,M,R,34,4
ChD_entr_4_BB,6,7,44,1,Correct,0.444070393864095,4,S02,M,R,34,1
ChD_entr_4_BB,6,7,45,0,Correct,0.444016121854147,4,S02,M,R,34,4
ChD_entr_4_BB,6,7,46,0,Correct,0.557374292880995,6,S02,M,R,34,4
ChD_entr_4_BB,6,7,47,1,Correct,0.736851834338595,5,S02,M,R,34,1
ChD_entr_4_BB,6,7,48,1,Correct,0.614054573062094,5,S02,M,R,34,1
ChD_entr_4_BB,6,7,49,0,Correct,0.462907614360011,4,S02,M,R,34,4
ChD_entr_4_BB,6,7,50,1,Correct,0.49124980244982,4,S02,M,R,34,1
ChD_entr_4_BB,6,7,51,1,Correct,0.576266809385124,6,S02,M,R,34,1
ChD_entr_4_BB,6,7,52,1,Wrong,0.717955221834127,6,S02,M,R,34,2
ChD_entr_4_BB,6,7,53,1,Correct,0.774623214010571,5,S02,M,R,34,1
ChD_entr_4_BB,6,7,54,1,Correct,0.500704594035924,6,S02,M,R,34,1
ChD_entr_4_BB,6,7,55,0,Correct,0.736851493003414,5,S02,M,R,34,4
ChD_entr_4_BB,6,7,56,0,Correct,0.491254581116882,4,S02,M,R,34,4
ChD_entr_4_BB,6,7,57,1,Correct,0.519588235872652,4,S02,M,R,34,1
ChD_entr_4_BB,6,7,58,0,Correct,0.396787561260717,5,S02,M,R,34,4
ChD_entr_4_BB,6,7,59,0,Correct,0.491257994450498,4,S02,M,R,34,4
ChD_entr_4_BB,6,7,60,0,Correct,0.746292289921694,6,S02,M,R,34,4
ChD_entr_4_BB,6,7,61,0,Correct,0.406238598181662,6,S02,M,R,34,4
ChD_entr_4_BB,6,7,62,1,Correct,0.434575666271048,4,S02,M,R,34,1
ChD_entr_4_BB,6,7,63,0,Correct,0.736847055669714,5,S02,M,R,34,4
ChD_entr_4_BB,6,7,64,0,Correct,0.510151876288073,5,S02,M,R,34,4
ChD_entr_4_BB,6,7,65,0,Correct,0.359010378921594,5,S02,M,R,34,4
ChD_entr_4_BB,6,7,66,1,Correct,0.576258958717808,4,S02,M,R,34,1
ChD_entr_4_BB,6,7,67,0,Correct,0.406238598181662,4,S02,M,R,34,4
ChD_entr_4_BB,6,7,68,1,Wrong,0.963548720385225,6,S02,M,R,34,2
ChD_entr_4_BB,6,7,69,1,Correct,0.708504867579904,4,S02,M,R,34,1
ChD_entr_4_BB,6,7,70,0,Correct,0.538488944377459,6,S02,M,R,34,4
ChD_entr_4_BB,6,7,71,0,Correct,0.51013822295361,4,S02,M,R,34,4
ChD_entr_4_BB,6,7,72,1,Wrong,0.425128042685537,5,S02,M,R,34,2
ChD_entr_4_BB,1,0,1,1,Wrong,1.02477027743997,6,S03,M,R,22,2
ChD_entr_4_BB,1,0,2,0,Correct,0.948870988533599,4,S03,M,R,22,4
ChD_entr_4_BB,1,0,3,0,Correct,0.920407176541921,5,S03,M,R,22,4
ChD_entr_4_BB,1,0,4,1,Correct,0.408053099154204,6,S03,M,R,22,1
ChD_entr_4_BB,1,0,5,0,Correct,0.702182000966277,5,S03,M,R,22,4
ChD_entr_4_BB,1,0,6,0,Correct,0.853990818758029,6,S03,M,R,22,4
ChD_entr_4_BB,1,0,7,0,Correct,1.09118834188703,4,S03,M,R,22,4
ChD_entr_4_BB,1,0,8,1,Correct,0.569354405402555,6,S03,M,R,22,1
ChD_entr_4_BB,1,0,9,0,Correct,0.692690877857676,6,S03,M,R,22,4
ChD_entr_4_BB,1,0,10,0,Correct,1.62253592948924,6,S03,M,R,22,4
ChD_entr_4_BB,1,0,11,1,Wrong,1.06271872721729,5,S03,M,R,22,2
ChD_entr_4_BB,1,0,12,1,Correct,0.6831994134048,6,S03,M,R,22,1
ChD_entr_4_BB,1,0,13,1,Correct,0.540877281391586,4,S03,M,R,22,1
ChD_entr_4_BB,1,0,14,1,Correct,0.464976968496048,4,S03,M,R,22,1
ChD_entr_4_BB,1,0,15,0,Correct,0.607301489846432,4,S03,M,R,22,4
ChD_entr_4_BB,1,0,16,1,Correct,0.502925076943648,5,S03,M,R,22,1
ChD_entr_4_BB,1,0,17,0,Correct,0.550371135167079,5,S03,M,R,22,4
ChD_entr_4_BB,1,0,18,1,Correct,1.11965829790104,6,S03,M,R,22,1
ChD_entr_4_BB,1,0,19,0,Correct,0.711667662741092,5,S03,M,R,22,4
ChD_entr_4_BB,1,0,20,1,Correct,1.08170916544972,4,S03,M,R,22,1
ChD_entr_4_BB,1,0,21,0,Correct,0.721151959197014,6,S03,M,R,22,4
ChD_entr_4_BB,1,0,22,0,Correct,0.607303537839325,4,S03,M,R,22,4
ChD_entr_4_BB,1,0,23,1,Correct,0.7306485436394,5,S03,M,R,22,1
ChD_entr_4_BB,1,0,24,1,Correct,0.531387864946155,4,S03,M,R,22,1
ChD_entr_4_BB,1,0,25,1,Correct,0.787579239633924,5,S03,M,R,22,1
ChD_entr_4_BB,1,0,26,0,Correct,0.816069334319909,6,S03,M,R,22,4
ChD_entr_4_BB,1,0,27,0,Correct,0.616790223617863,4,S03,M,R,22,4
ChD_entr_4_BB,1,0,28,1,Correct,0.578840067177371,4,S03,M,R,22,1
ChD_entr_4_BB,1,0,29,1,Wrong,1.48969263258361,4,S03,M,R,22,2
ChD_entr_4_BB,1,0,30,0,Correct,0.63577178719017,5,S03,M,R,22,4
ChD_entr_4_BB,1,0,31,1,Correct,0.635762571171217,6,S03,M,R,22,1
ChD_entr_4_BB,1,0,32,0,Correct,0.683203168075415,5,S03,M,R,22,4
ChD_entr_4_BB,1,0,33,1,Wrong,0.626278274729848,4,S03,M,R,22,2
ChD_entr_4_BB,1,0,34,0,Correct,0.626277250740677,6,S03,M,R,22,4
ChD_entr_4_BB,1,0,35,0,Correct,1.00583376988594,5,S03,M,R,22,4
ChD_entr_4_BB,1,0,36,1,Correct,0.493444876488065,5,S03,M,R,22,1
ChD_entr_4_BB,1,0,37,0,Correct,0.683203168075415,4,S03,M,R,22,4
ChD_entr_4_BB,1,0,38,1,Correct,0.474460240948247,6,S03,M,R,22,1
ChD_entr_4_BB,1,0,39,1,Correct,0.664225017844001,5,S03,M,R,22,1
ChD_entr_4_BB,1,0,40,1,Correct,0.464979357833217,4,S03,M,R,22,1
ChD_entr_4_BB,1,0,41,0,Correct,0.967846749427845,6,S03,M,R,22,4
ChD_entr_4_BB,1,0,42,0,Correct,1.66047755261388,5,S03,M,R,22,4
ChD_entr_4_BB,1,0,43,1,Wrong,1.783814707743,6,S03,M,R,22,2
ChD_entr_4_BB,1,0,44,0,Correct,0.493443169839447,5,S03,M,R,22,4
ChD_entr_4_BB,1,0,45,0,Correct,0.50293770628894,5,S03,M,R,22,4
ChD_entr_4_BB,1,0,46,1,Correct,0.389076655600511,5,S03,M,R,22,1
ChD_entr_4_BB,1,0,47,0,Correct,0.759106211637845,4,S03,M,R,22,4
ChD_entr_4_BB,1,0,48,0,Correct,0.455483456050279,4,S03,M,R,22,4
ChD_entr_4_BB,1,0,49,0,Correct,0.436532271172618,5,S03,M,R,22,4
ChD_entr_4_BB,1,0,50,1,Correct,0.559864988957124,5,S03,M,R,22,1
ChD_entr_4_BB,1,0,51,0,Correct,0.816041344976984,6,S03,M,R,22,4
ChD_entr_4_BB,1,0,52,1,Wrong,0.502946580949065,4,S03,M,R,22,2
ChD_entr_4_BB,1,0,53,0,Wrong,1.32838859568292,6,S03,M,R,22,3
ChD_entr_4_BB,1,0,54,1,Correct,0.702178587625385,6,S03,M,R,22,1
ChD_entr_4_BB,1,0,55,0,Correct,0.778079924524645,4,S03,M,R,22,4
ChD_entr_4_BB,1,0,56,0,Correct,1.21453061700566,6,S03,M,R,22,4
ChD_entr_4_BB,1,0,57,0,Correct,0.616787834295246,4,S03,M,R,22,4
ChD_entr_4_BB,1,0,58,0,Correct,0.41753125160234,4,S03,M,R,22,4
ChD_entr_4_BB,1,0,59,1,Correct,0.540880694732477,5,S03,M,R,22,1
ChD_entr_4_BB,1,0,60,0,Wrong,0.464978333829495,5,S03,M,R,22,3
ChD_entr_4_BB,1,0,61,0,Correct,0.597810025393555,4,S03,M,R,22,4
ChD_entr_4_BB,1,0,62,1,Correct,0.891935513879289,4,S03,M,R,22,1
ChD_entr_4_BB,1,0,63,1,Correct,1.5845666583805,4,S03,M,R,22,1
ChD_entr_4_BB,1,0,64,1,Correct,0.863473749865952,4,S03,M,R,22,1
ChD_entr_4_BB,1,0,65,1,Correct,0.654731846742507,6,S03,M,R,22,1
ChD_entr_4_BB,1,0,66,1,Correct,1.0627252125548,5,S03,M,R,22,1
ChD_entr_4_BB,1,0,67,1,Wrong,1.40429129791562,6,S03,M,R,22,2
ChD_entr_4_BB,1,0,68,1,Correct,0.740133181410492,5,S03,M,R,22,1
ChD_entr_4_BB,1,0,69,1,Correct,0.872960435644491,5,S03,M,R,22,1
ChD_entr_4_BB,1,0,70,0,Correct,0.816031446313136,6,S03,M,R,22,4
ChD_entr_4_BB,1,0,71,1,Correct,1.57507553525735,6,S03,M,R,22,1
ChD_entr_4_BB,1,0,72,0,Correct,0.730645812972507,6,S03,M,R,22,4
ChD_entr_4_BB,2,4,1,0,Correct,0.844498671645706,5,S03,M,R,22,4
ChD_entr_4_BB,2,4,2,1,Correct,0.569340410723817,6,S03,M,R,22,1
ChD_entr_4_BB,2,4,3,1,Correct,1.08169892545615,5,S03,M,R,22,1
ChD_entr_4_BB,2,4,4,0,Correct,0.635762912500941,4,S03,M,R,22,4
ChD_entr_4_BB,2,4,5,1,Correct,1.52763186637108,4,S03,M,R,22,1
ChD_entr_4_BB,2,4,6,1,Correct,0.825521545418014,6,S03,M,R,22,1
ChD_entr_4_BB,2,4,7,0,Correct,0.93938327876589,6,S03,M,R,22,4
ChD_entr_4_BB,2,4,8,1,Wrong,2.02101905752468,5,S03,M,R,22,2
ChD_entr_4_BB,2,4,9,1,Correct,0.996304758756014,5,S03,M,R,22,1
ChD_entr_4_BB,2,4,10,1,Correct,0.816036566317198,4,S03,M,R,22,1
ChD_entr_4_BB,2,4,11,0,Correct,1.79330071084754,6,S03,M,R,22,4
ChD_entr_4_BB,2,4,12,0,Correct,0.778079924524645,4,S03,M,R,22,4
ChD_entr_4_BB,2,4,13,0,Correct,0.702216816961882,5,S03,M,R,22,4
ChD_entr_4_BB,2,4,14,1,Correct,0.569349626728217,4,S03,M,R,22,1
ChD_entr_4_BB,2,4,15,0,Correct,0.78756626897346,6,S03,M,R,22,4
ChD_entr_4_BB,2,4,16,0,Correct,0.74012703741726,5,S03,M,R,22,4
ChD_entr_4_BB,2,4,17,0,Correct,0.76859084942349,4,S03,M,R,22,4
ChD_entr_4_BB,2,4,18,0,Correct,0.702178928969661,5,S03,M,R,22,4
ChD_entr_4_BB,2,4,19,0,Correct,0.673706924962753,6,S03,M,R,22,4
ChD_entr_4_BB,2,4,20,0,Correct,1.09118663522386,6,S03,M,R,22,4
ChD_entr_4_BB,2,4,21,0,Correct,0.80653827519709,5,S03,M,R,22,4
ChD_entr_4_BB,2,4,22,1,Correct,0.901425612984167,4,S03,M,R,22,1
ChD_entr_4_BB,2,4,23,1,Correct,1.56558782548964,4,S03,M,R,22,1
ChD_entr_4_BB,2,4,24,0,Correct,0.730634207630937,6,S03,M,R,22,4
ChD_entr_4_BB,2,4,25,0,Wrong,1.78384542773827,4,S03,M,R,22,3
ChD_entr_4_BB,2,4,26,1,Correct,1.94511328330991,4,S03,M,R,22,1
ChD_entr_4_BB,2,4,27,1,Correct,1.29992137035035,5,S03,M,R,22,1
ChD_entr_4_BB,2,4,28,1,Wrong,0.550369087174186,6,S03,M,R,22,2
ChD_entr_4_BB,2,4,29,1,Wrong,1.24299750102306,5,S03,M,R,22,2
ChD_entr_4_BB,2,4,30,0,Correct,1.96408870285988,4,S03,M,R,22,4
ChD_entr_4_BB,2,4,31,1,Correct,0.711664249414753,6,S03,M,R,22,1
ChD_entr_4_BB,2,4,32,1,Wrong,1.23350876722252,5,S03,M,R,22,2
ChD_entr_4_BB,2,4,33,0,Correct,0.654738332065463,6,S03,M,R,22,4
ChD_entr_4_BB,2,4,34,0,Correct,0.825523934755183,6,S03,M,R,22,4
ChD_entr_4_BB,2,4,35,1,Correct,0.797090160099324,5,S03,M,R,22,1
ChD_entr_4_BB,2,4,36,1,Correct,0.910912298762705,4,S03,M,R,22,1
ChD_entr_4_BB,2,4,37,1,Correct,0.6452420889528,6,S03,M,R,22,1
ChD_entr_4_BB,2,4,38,1,Wrong,1.81227817840496,6,S03,M,R,22,2
ChD_entr_4_BB,2,4,39,1,Correct,0.768592214742384,4,S03,M,R,22,1
ChD_entr_4_BB,2,4,40,1,Correct,0.806538957856537,6,S03,M,R,22,1
ChD_entr_4_BB,2,4,41,0,Correct,1.84074745173042,5,S03,M,R,22,4
ChD_entr_4_BB,2,4,42,0,Correct,0.977331728543213,5,S03,M,R,22,4
ChD_entr_4_BB,2,4,43,0,Correct,0.749617819181585,4,S03,M,R,22,4
ChD_entr_4_BB,2,4,44,0,Correct,1.13862791477295,4,S03,M,R,22,4
ChD_entr_4_BB,2,4,45,0,Correct,0.692688829864783,4,S03,M,R,22,4
ChD_entr_4_BB,2,4,46,1,Wrong,0.863476480532845,5,S03,M,R,22,2
ChD_entr_4_BB,2,4,47,0,Correct,1.0532299934313,6,S03,M,R,22,4
ChD_entr_4_BB,2,4,48,0,Correct,0.73063693829783,4,S03,M,R,22,4
ChD_entr_4_BB,2,4,49,1,Correct,0.550367721840739,6,S03,M,R,22,1
ChD_entr_4_BB,2,4,50,1,Correct,0.740134205414215,5,S03,M,R,22,1
ChD_entr_4_BB,2,4,51,0,Correct,1.1006699076615,6,S03,M,R,22,4
ChD_entr_4_BB,2,4,52,0,Correct,0.825513012087613,5,S03,M,R,22,4
ChD_entr_4_BB,2,4,53,1,Correct,0.493435319168493,4,S03,M,R,22,1
ChD_entr_4_BB,2,4,54,1,Correct,0.768593238746107,6,S03,M,R,22,1
ChD_entr_4_BB,2,4,55,1,Correct,0.740127037402708,5,S03,M,R,22,1
ChD_entr_4_BB,2,4,56,0,Correct,0.664225017844001,4,S03,M,R,22,4
ChD_entr_4_BB,2,4,57,1,Correct,0.740129085424705,4,S03,M,R,22,1
ChD_entr_4_BB,2,4,58,0,Correct,0.702171078298707,4,S03,M,R,22,4
ChD_entr_4_BB,2,4,59,0,Correct,1.1670862654454,5,S03,M,R,22,4
ChD_entr_4_BB,2,4,60,1,Correct,0.711665614733647,6,S03,M,R,22,1
ChD_entr_4_BB,2,4,61,1,Wrong,0.673709655629646,4,S03,M,R,22,2
ChD_entr_4_BB,2,4,62,1,Correct,2.3341145042266,6,S03,M,R,22,1
ChD_entr_4_BB,2,4,63,0,Correct,0.986816024984582,5,S03,M,R,22,4
ChD_entr_4_BB,2,4,64,0,Correct,0.616776911627676,4,S03,M,R,22,4
ChD_entr_4_BB,2,4,65,0,Correct,0.550410047177575,6,S03,M,R,22,4
ChD_entr_4_BB,2,4,66,0,Correct,0.607292615171755,5,S03,M,R,22,4
ChD_entr_4_BB,2,4,67,1,Correct,1.70790313083562,4,S03,M,R,22,1
ChD_entr_4_BB,2,4,68,0,Correct,1.11965727389732,6,S03,M,R,22,4
ChD_entr_4_BB,2,4,69,1,Correct,0.597811049397278,5,S03,M,R,22,1
ChD_entr_4_BB,2,4,70,0,Correct,0.635765643182385,5,S03,M,R,22,4
ChD_entr_4_BB,2,4,71,1,Correct,0.778084703184431,6,S03,M,R,22,1
ChD_entr_4_BB,2,4,72,1,Correct,1.03426071787457,5,S03,M,R,22,1
ChD_entr_4_BB,3,4,1,0,Correct,0.645244819619693,4,S03,M,R,22,4
ChD_entr_4_BB,3,4,2,1,Correct,0.559854066289554,5,S03,M,R,22,1
ChD_entr_4_BB,3,4,3,1,Correct,0.759106552967569,5,S03,M,R,22,1
ChD_entr_4_BB,3,4,4,1,Correct,0.768596993416722,4,S03,M,R,22,1
ChD_entr_4_BB,3,4,5,0,Correct,0.597809684063832,4,S03,M,R,22,4
ChD_entr_4_BB,3,4,6,0,Correct,0.578835288503033,6,S03,M,R,22,4
ChD_entr_4_BB,3,4,7,1,Wrong,0.977334800539829,4,S03,M,R,22,2
ChD_entr_4_BB,3,4,8,1,Correct,0.502927466280817,6,S03,M,R,22,1
ChD_entr_4_BB,3,4,9,1,Correct,0.75909904364089,5,S03,M,R,22,1
ChD_entr_4_BB,3,4,10,1,Correct,1.31889986191149,6,S03,M,R,22,1
ChD_entr_4_BB,3,4,11,0,Correct,0.635767349845555,4,S03,M,R,22,4
ChD_entr_4_BB,3,4,12,1,Correct,0.664221263173385,4,S03,M,R,22,1
ChD_entr_4_BB,3,4,13,0,Correct,0.673711020963092,5,S03,M,R,22,4
ChD_entr_4_BB,3,4,14,0,Correct,0.673715116963431,6,S03,M,R,22,4
ChD_entr_4_BB,3,4,15,0,Correct,1.13862177077972,6,S03,M,R,22,4
ChD_entr_4_BB,3,4,16,1,Correct,0.597845524077711,4,S03,M,R,22,1
ChD_entr_4_BB,3,4,17,0,Correct,1.0247771041072,5,S03,M,R,22,4
ChD_entr_4_BB,3,4,18,0,Correct,0.569343482720433,4,S03,M,R,22,4
ChD_entr_4_BB,3,4,19,1,Correct,0.654739697413461,6,S03,M,R,22,1
ChD_entr_4_BB,3,4,20,1,Correct,1.02477471478458,4,S03,M,R,22,1
ChD_entr_4_BB,3,4,21,1,Correct,0.645249598294031,4,S03,M,R,22,1
ChD_entr_4_BB,3,4,22,1,Correct,0.626275885392679,4,S03,M,R,22,1
ChD_entr_4_BB,3,4,23,0,Correct,0.986816024999134,4,S03,M,R,22,4
ChD_entr_4_BB,3,4,24,1,Correct,1.12913542634546,6,S03,M,R,22,1
ChD_entr_4_BB,3,4,25,1,Correct,0.797063536089845,6,S03,M,R,22,1
ChD_entr_4_BB,3,4,26,1,Correct,0.702176539632492,4,S03,M,R,22,1
ChD_entr_4_BB,3,4,27,0,Correct,0.806549539194384,5,S03,M,R,22,4
ChD_entr_4_BB,3,4,28,0,Correct,0.872966579652275,6,S03,M,R,22,4
ChD_entr_4_BB,3,4,29,0,Correct,1.40433464725618,4,S03,M,R,22,4
ChD_entr_4_BB,3,4,30,0,Correct,0.616805924959772,4,S03,M,R,22,4
ChD_entr_4_BB,3,4,31,0,Correct,0.588318902284955,6,S03,M,R,22,4
ChD_entr_4_BB,3,4,32,1,Correct,0.816035883643199,5,S03,M,R,22,1
ChD_entr_4_BB,3,4,33,0,Correct,0.635758133841155,6,S03,M,R,22,4
ChD_entr_4_BB,3,4,34,1,Wrong,1.01528120232426,6,S03,M,R,22,2
ChD_entr_4_BB,3,4,35,1,Correct,1.09120574989211,4,S03,M,R,22,1
ChD_entr_4_BB,3,4,36,1,Correct,0.692694973858015,6,S03,M,R,22,1
ChD_entr_4_BB,3,4,37,1,Wrong,0.8540853681101,5,S03,M,R,22,2
ChD_entr_4_BB,3,4,38,0,Correct,0.550362260506954,5,S03,M,R,22,4
ChD_entr_4_BB,3,4,39,1,Wrong,1.04374945166055,6,S03,M,R,22,2
ChD_entr_4_BB,3,4,40,0,Correct,0.616781348943186,5,S03,M,R,22,4
ChD_entr_4_BB,3,4,41,1,Correct,0.910912640092429,6,S03,M,R,22,1
ChD_entr_4_BB,3,4,42,0,Correct,0.768591190738662,6,S03,M,R,22,4
ChD_entr_4_BB,3,4,43,0,Correct,0.578836312506755,6,S03,M,R,22,4
ChD_entr_4_BB,3,4,44,1,Correct,1.46122370060242,5,S03,M,R,22,1
ChD_entr_4_BB,3,4,45,0,Correct,0.635763253845216,6,S03,M,R,22,4
ChD_entr_4_BB,3,4,46,1,Correct,0.730641034298169,5,S03,M,R,22,1
ChD_entr_4_BB,3,4,47,1,Correct,0.939369284101704,6,S03,M,R,22,1
ChD_entr_4_BB,3,4,48,1,Correct,0.588318902284955,4,S03,M,R,22,1
ChD_entr_4_BB,3,4,49,0,Correct,0.569343824064708,5,S03,M,R,22,4
ChD_entr_4_BB,3,4,50,0,Correct,1.99254739486205,4,S03,M,R,22,4
ChD_entr_4_BB,3,4,51,1,Correct,0.654740721402632,5,S03,M,R,22,1
ChD_entr_4_BB,3,4,52,0,Correct,0.616790223617863,5,S03,M,R,22,4
ChD_entr_4_BB,3,4,53,1,Correct,0.53139161961677,5,S03,M,R,22,1
ChD_entr_4_BB,3,4,54,1,Wrong,1.15760299300775,6,S03,M,R,22,2
ChD_entr_4_BB,3,4,55,0,Correct,0.540879670728755,6,S03,M,R,22,4
ChD_entr_4_BB,3,4,56,1,Correct,0.550366356507293,4,S03,M,R,22,1
ChD_entr_4_BB,3,4,57,0,Correct,0.540882060065924,6,S03,M,R,22,4
ChD_entr_4_BB,3,4,58,1,Correct,0.778082996535813,5,S03,M,R,22,1
ChD_entr_4_BB,3,4,59,0,Correct,0.692688488505955,4,S03,M,R,22,4
ChD_entr_4_BB,3,4,60,0,Correct,0.550362260506954,5,S03,M,R,22,4
ChD_entr_4_BB,3,4,61,0,Correct,0.654736625402293,4,S03,M,R,22,4
ChD_entr_4_BB,3,4,62,0,Correct,0.464975944492326,4,S03,M,R,22,4
ChD_entr_4_BB,3,4,63,1,Correct,0.55985884494934,4,S03,M,R,22,1
ChD_entr_4_BB,3,4,64,0,Correct,0.882454289434536,5,S03,M,R,22,4
ChD_entr_4_BB,3,4,65,0,Correct,0.635761888526322,6,S03,M,R,22,4
ChD_entr_4_BB,3,4,66,0,Correct,0.540885473392263,4,S03,M,R,22,4
ChD_entr_4_BB,3,4,67,1,Wrong,1.87869999752264,5,S03,M,R,22,2
ChD_entr_4_BB,3,4,68,0,Correct,1.10066854232806,5,S03,M,R,22,4
ChD_entr_4_BB,3,4,69,1,Correct,0.853984333420521,5,S03,M,R,22,1
ChD_entr_4_BB,3,4,70,0,Correct,0.569369424070464,5,S03,M,R,22,4
ChD_entr_4_BB,3,4,71,1,Correct,0.645253011620371,6,S03,M,R,22,1
ChD_entr_4_BB,3,4,72,0,Correct,0.464975603162602,5,S03,M,R,22,4
ChD_entr_4_BB,4,0,1,0,Correct,0.559859527623339,4,S03,M,R,22,4
ChD_entr_4_BB,4,0,2,1,Correct,0.702202480967971,5,S03,M,R,22,1
ChD_entr_4_BB,4,0,3,1,Correct,0.578826755172631,4,S03,M,R,22,1
ChD_entr_4_BB,4,0,4,0,Correct,0.559857820945617,4,S03,M,R,22,4
ChD_entr_4_BB,4,0,5,0,Correct,0.559859186279064,6,S03,M,R,22,4
ChD_entr_4_BB,4,0,6,1,Correct,0.540880694732477,4,S03,M,R,22,1
ChD_entr_4_BB,4,0,7,1,Wrong,0.626268376066,6,S03,M,R,22,2
ChD_entr_4_BB,4,0,8,0,Correct,0.673750274303311,4,S03,M,R,22,4
ChD_entr_4_BB,4,0,9,1,Correct,0.749661168522143,6,S03,M,R,22,1
ChD_entr_4_BB,4,0,10,0,Correct,0.559852700941556,4,S03,M,R,22,4
ChD_entr_4_BB,4,0,11,1,Correct,1.25248486946104,4,S03,M,R,22,1
ChD_entr_4_BB,4,0,12,0,Correct,0.540878988054756,5,S03,M,R,22,4
ChD_entr_4_BB,4,0,13,0,Correct,0.664223652510554,6,S03,M,R,22,4
ChD_entr_4_BB,4,0,14,1,Wrong,0.664222287177108,6,S03,M,R,22,2
ChD_entr_4_BB,4,0,15,0,Correct,0.521904933838232,4,S03,M,R,22,4
ChD_entr_4_BB,4,0,16,0,Correct,0.98681977966975,6,S03,M,R,22,4
ChD_entr_4_BB,4,0,17,1,Correct,0.891941316542798,6,S03,M,R,22,1
ChD_entr_4_BB,4,0,18,1,Correct,1.69842122371687,4,S03,M,R,22,1
ChD_entr_4_BB,4,0,19,0,Correct,1.05330133211479,6,S03,M,R,22,4
ChD_entr_4_BB,4,0,20,0,Correct,0.929889766320121,4,S03,M,R,22,4
ChD_entr_4_BB,4,0,21,0,Correct,0.645248915620032,4,S03,M,R,22,4
ChD_entr_4_BB,4,0,22,1,Correct,0.967841288108611,6,S03,M,R,22,1
ChD_entr_4_BB,4,0,23,0,Correct,0.493439073824557,6,S03,M,R,22,4
ChD_entr_4_BB,4,0,24,0,Correct,0.455491306721233,4,S03,M,R,22,4
ChD_entr_4_BB,4,0,25,0,Correct,0.531392302276217,6,S03,M,R,22,4
ChD_entr_4_BB,4,0,26,0,Correct,0.787568658296077,5,S03,M,R,22,4
ChD_entr_4_BB,4,0,27,1,Correct,0.569352016065386,4,S03,M,R,22,1
ChD_entr_4_BB,4,0,28,1,Correct,0.730644447624509,5,S03,M,R,22,1
ChD_entr_4_BB,4,0,29,1,Correct,0.578826413828356,5,S03,M,R,22,1
ChD_entr_4_BB,4,0,30,0,Correct,0.664222287177108,5,S03,M,R,22,4
ChD_entr_4_BB,4,0,31,0,Correct,0.483955118712911,4,S03,M,R,22,4
ChD_entr_4_BB,4,0,32,1,Correct,0.597807636056386,6,S03,M,R,22,1
ChD_entr_4_BB,4,0,33,1,Correct,0.569338362730923,5,S03,M,R,22,1
ChD_entr_4_BB,4,0,34,1,Correct,1.6320058899367,5,S03,M,R,22,1
ChD_entr_4_BB,4,0,35,1,Wrong,0.797065584082738,5,S03,M,R,22,2
ChD_entr_4_BB,4,0,36,0,Correct,0.474464678278309,6,S03,M,R,22,4
ChD_entr_4_BB,4,0,37,0,Correct,0.607297393846093,5,S03,M,R,22,4
ChD_entr_4_BB,4,0,38,1,Correct,0.540886497395986,5,S03,M,R,22,1
ChD_entr_4_BB,4,0,39,0,Correct,0.607299783183262,5,S03,M,R,22,4
ChD_entr_4_BB,4,0,40,1,Correct,0.692701117851248,4,S03,M,R,22,1
ChD_entr_4_BB,4,0,41,0,Correct,0.531390936942771,5,S03,M,R,22,4
ChD_entr_4_BB,4,0,42,1,Correct,0.683203168075415,4,S03,M,R,22,1
ChD_entr_4_BB,4,0,43,1,Wrong,0.872961459648213,4,S03,M,R,22,2
ChD_entr_4_BB,4,0,44,0,Correct,0.588320950277848,5,S03,M,R,22,4
ChD_entr_4_BB,4,0,45,1,Correct,0.588325728952186,5,S03,M,R,22,1
ChD_entr_4_BB,4,0,46,0,Correct,0.730641716972168,4,S03,M,R,22,4
ChD_entr_4_BB,4,0,47,1,Correct,0.996309196100628,6,S03,M,R,22,1
ChD_entr_4_BB,4,0,48,0,Correct,0.6357601818486,5,S03,M,R,22,4
ChD_entr_4_BB,4,0,49,0,Correct,0.512454088059021,6,S03,M,R,22,4
ChD_entr_4_BB,4,0,50,1,Correct,0.948885665886337,5,S03,M,R,22,1
ChD_entr_4_BB,4,0,51,1,Wrong,1.60353798193013,6,S03,M,R,22,2
ChD_entr_4_BB,4,0,52,1,Correct,0.882453606760537,5,S03,M,R,22,1
ChD_entr_4_BB,4,0,53,1,Wrong,1.37582748590939,6,S03,M,R,22,2
ChD_entr_4_BB,4,0,54,0,Correct,0.569346896061324,5,S03,M,R,22,4
ChD_entr_4_BB,4,0,55,0,Correct,0.512420637382311,5,S03,M,R,22,4
ChD_entr_4_BB,4,0,56,1,Correct,0.588322998285294,6,S03,M,R,22,1
ChD_entr_4_BB,4,0,57,0,Correct,1.05323443077592,5,S03,M,R,22,4
ChD_entr_4_BB,4,0,58,0,Correct,0.806540664534259,5,S03,M,R,22,4
ChD_entr_4_BB,4,0,59,0,Correct,0.692687123187061,6,S03,M,R,22,4
ChD_entr_4_BB,4,0,60,0,Correct,0.616785786287801,6,S03,M,R,22,4
ChD_entr_4_BB,4,0,61,1,Wrong,1.00579588187917,5,S03,M,R,22,2
ChD_entr_4_BB,4,0,62,0,Correct,0.436545241833082,4,S03,M,R,22,4
ChD_entr_4_BB,4,0,63,1,Correct,0.873002078321879,6,S03,M,R,22,1
ChD_entr_4_BB,4,0,64,1,Correct,0.531388888949878,4,S03,M,R,22,1
ChD_entr_4_BB,4,0,65,1,Correct,0.455481749387109,4,S03,M,R,22,1
ChD_entr_4_BB,4,0,66,0,Correct,0.455490965391509,6,S03,M,R,22,4
ChD_entr_4_BB,4,0,67,1,Correct,0.806546467197768,5,S03,M,R,22,1
ChD_entr_4_BB,4,0,68,0,Correct,0.683208970738924,4,S03,M,R,22,4
ChD_entr_4_BB,4,0,69,1,Wrong,0.455483114720555,6,S03,M,R,22,2
ChD_entr_4_BB,4,0,70,0,Correct,0.483951364042296,6,S03,M,R,22,4
ChD_entr_4_BB,4,0,71,1,Correct,0.521906981831125,4,S03,M,R,22,1
ChD_entr_4_BB,4,0,72,1,Correct,0.474464336934034,4,S03,M,R,22,1
ChD_entr_4_BB,5,7,1,1,Correct,1.22402549478487,6,S03,M,R,22,1
ChD_entr_4_BB,5,7,2,0,Correct,1.0816996081156,6,S03,M,R,22,4
ChD_entr_4_BB,5,7,3,1,Wrong,1.66995775305491,6,S03,M,R,22,2
ChD_entr_4_BB,5,7,4,0,Correct,0.597810025408107,6,S03,M,R,22,4
ChD_entr_4_BB,5,7,5,0,Correct,0.512411080062739,4,S03,M,R,22,4
ChD_entr_4_BB,5,7,6,0,Correct,0.512416882726247,6,S03,M,R,22,4
ChD_entr_4_BB,5,7,7,1,Wrong,0.71166151874786,6,S03,M,R,22,2
ChD_entr_4_BB,5,7,8,1,Wrong,1.37583294724318,6,S03,M,R,22,2
ChD_entr_4_BB,5,7,9,1,Correct,0.607334599178866,5,S03,M,R,22,1
ChD_entr_4_BB,5,7,10,0,Correct,0.502928148940264,5,S03,M,R,22,4
ChD_entr_4_BB,5,7,11,1,Wrong,0.816038614310091,5,S03,M,R,22,2
ChD_entr_4_BB,5,7,12,1,Correct,1.11965454323043,4,S03,M,R,22,1
ChD_entr_4_BB,5,7,13,0,Correct,0.673712386296538,5,S03,M,R,22,4
ChD_entr_4_BB,5,7,14,1,Correct,0.844493551641644,5,S03,M,R,22,1
ChD_entr_4_BB,5,7,15,1,Correct,0.578838019169925,4,S03,M,R,22,1
ChD_entr_4_BB,5,7,16,0,Correct,1.13862859744695,6,S03,M,R,22,4
ChD_entr_4_BB,5,7,17,1,Wrong,0.55036703916674,6,S03,M,R,22,2
ChD_entr_4_BB,5,7,18,1,Correct,1.15760299300775,6,S03,M,R,22,1
ChD_entr_4_BB,5,7,19,1,Correct,0.569338362730923,4,S03,M,R,22,1
ChD_entr_4_BB,5,7,20,1,Wrong,1.35686435436044,5,S03,M,R,22,2
ChD_entr_4_BB,5,7,21,1,Wrong,0.853986381427967,5,S03,M,R,22,2
ChD_entr_4_BB,5,7,22,0,Correct,0.559885127629095,5,S03,M,R,22,4
ChD_entr_4_BB,5,7,23,0,Correct,0.626276568066678,6,S03,M,R,22,4
ChD_entr_4_BB,5,7,24,1,Correct,0.939389081429399,4,S03,M,R,22,1
ChD_entr_4_BB,5,7,25,1,Correct,0.692692584520846,5,S03,M,R,22,1
ChD_entr_4_BB,5,7,26,1,Correct,1.06273101521831,4,S03,M,R,22,1
ChD_entr_4_BB,5,7,27,0,Correct,0.607298417849815,5,S03,M,R,22,4
ChD_entr_4_BB,5,7,28,1,Correct,1.43275954725192,6,S03,M,R,22,1
ChD_entr_4_BB,5,7,29,0,Correct,0.721151959182462,4,S03,M,R,22,4
ChD_entr_4_BB,5,7,30,0,Correct,0.740130792073323,5,S03,M,R,22,4
ChD_entr_4_BB,5,7,31,0,Correct,0.531391619602218,5,S03,M,R,22,4
ChD_entr_4_BB,5,7,32,1,Wrong,2.07795316687465,4,S03,M,R,22,2
ChD_entr_4_BB,5,7,33,0,Correct,0.531387182286708,4,S03,M,R,22,4
ChD_entr_4_BB,5,7,34,0,Correct,0.483953412064293,4,S03,M,R,22,4
ChD_entr_4_BB,5,7,35,0,Correct,0.550363284510677,5,S03,M,R,22,4
ChD_entr_4_BB,5,7,36,1,Correct,2.39104724824312,6,S03,M,R,22,1
ChD_entr_4_BB,5,7,37,1,Correct,1.23350535389618,4,S03,M,R,22,1
ChD_entr_4_BB,5,7,38,1,Correct,0.588321632966399,5,S03,M,R,22,1
ChD_entr_4_BB,5,7,39,0,Correct,0.635764277848939,4,S03,M,R,22,4
ChD_entr_4_BB,5,7,40,0,Correct,0.702179952958832,6,S03,M,R,22,4
ChD_entr_4_BB,5,7,41,1,Wrong,1.88817917395994,5,S03,M,R,22,2
ChD_entr_4_BB,5,7,42,1,Correct,0.654738673409738,5,S03,M,R,22,1
ChD_entr_4_BB,5,7,43,0,Correct,0.645251646286924,5,S03,M,R,22,4
ChD_entr_4_BB,5,7,44,1,Correct,0.569342117386986,6,S03,M,R,22,1
ChD_entr_4_BB,5,7,45,0,Correct,0.578847917848325,4,S03,M,R,22,4
ChD_entr_4_BB,5,7,46,1,Correct,0.540884108058817,6,S03,M,R,22,1
ChD_entr_4_BB,5,7,47,0,Correct,0.882446097419306,6,S03,M,R,22,4
ChD_entr_4_BB,5,7,48,0,Correct,0.540879670728755,6,S03,M,R,22,4
ChD_entr_4_BB,5,7,49,0,Correct,0.502973204958544,4,S03,M,R,22,4
ChD_entr_4_BB,5,7,50,1,Wrong,0.455490624061786,4,S03,M,R,22,2
ChD_entr_4_BB,5,7,51,0,Correct,0.635763936519215,5,S03,M,R,22,4
ChD_entr_4_BB,5,7,52,1,Correct,0.464977651170047,4,S03,M,R,22,1
ChD_entr_4_BB,5,7,53,0,Correct,0.50292780761054,6,S03,M,R,22,4
ChD_entr_4_BB,5,7,54,0,Correct,0.521906981845677,4,S03,M,R,22,4
ChD_entr_4_BB,5,7,55,1,Correct,0.540882401381095,4,S03,M,R,22,1
ChD_entr_4_BB,5,7,56,1,Wrong,0.512415517378249,5,S03,M,R,22,2
ChD_entr_4_BB,5,7,57,1,Wrong,0.559877618287865,4,S03,M,R,22,2
ChD_entr_4_BB,5,7,58,0,Correct,1.11015830010321,6,S03,M,R,22,4
ChD_entr_4_BB,5,7,59,0,Correct,0.759105187634122,6,S03,M,R,22,4
ChD_entr_4_BB,5,7,60,0,Correct,0.41753125160234,4,S03,M,R,22,4
ChD_entr_4_BB,5,7,61,0,Correct,0.483952046716295,4,S03,M,R,22,4
ChD_entr_4_BB,5,7,62,1,Correct,0.512421661400585,6,S03,M,R,22,1
ChD_entr_4_BB,5,7,63,0,Correct,0.559856114282447,5,S03,M,R,22,4
ChD_entr_4_BB,5,7,64,1,Wrong,0.52192404850648,6,S03,M,R,22,2
ChD_entr_4_BB,5,7,65,1,Correct,0.540884108058817,5,S03,M,R,22,1
ChD_entr_4_BB,5,7,66,1,Wrong,1.0722170183374,5,S03,M,R,22,2
ChD_entr_4_BB,5,7,67,0,Correct,0.56934894406877,5,S03,M,R,22,4
ChD_entr_4_BB,5,7,68,0,Correct,0.446001207616355,4,S03,M,R,22,4
ChD_entr_4_BB,5,7,69,0,Correct,0.408043883149803,6,S03,M,R,22,4
ChD_entr_4_BB,5,7,70,1,Correct,0.664224335184554,4,S03,M,R,22,1
ChD_entr_4_BB,5,7,71,0,Correct,0.578836653851031,5,S03,M,R,22,4
ChD_entr_4_BB,5,7,72,0,Correct,0.417536030276678,4,S03,M,R,22,4
ChD_entr_4_BB,6,7,1,1,Correct,0.768594604079553,5,S03,M,R,22,1
ChD_entr_4_BB,6,7,2,1,Correct,0.559850994278386,4,S03,M,R,22,1
ChD_entr_4_BB,6,7,3,0,Correct,0.616785103628354,6,S03,M,R,22,4
ChD_entr_4_BB,6,7,4,0,Correct,0.806566605855187,4,S03,M,R,22,4
ChD_entr_4_BB,6,7,5,1,Correct,1.38531929169199,6,S03,M,R,22,1
ChD_entr_4_BB,6,7,6,0,Correct,0.607303537853877,4,S03,M,R,22,4
ChD_entr_4_BB,6,7,7,1,Correct,0.872968968989444,6,S03,M,R,22,1
ChD_entr_4_BB,6,7,8,0,Correct,0.616787492950971,5,S03,M,R,22,4
ChD_entr_4_BB,6,7,9,1,Wrong,0.673714092959708,4,S03,M,R,22,2
ChD_entr_4_BB,6,7,10,0,Correct,0.597810366737831,4,S03,M,R,22,4
ChD_entr_4_BB,6,7,11,0,Correct,0.540882060065924,6,S03,M,R,22,4
ChD_entr_4_BB,6,7,12,0,Correct,0.446000524942356,4,S03,M,R,22,4
ChD_entr_4_BB,6,7,13,1,Correct,0.474470822286094,4,S03,M,R,22,1
ChD_entr_4_BB,6,7,14,1,Correct,0.502930196933157,6,S03,M,R,22,1
ChD_entr_4_BB,6,7,15,0,Correct,0.531405955625232,4,S03,M,R,22,4
ChD_entr_4_BB,6,7,16,1,Correct,0.540900150730449,4,S03,M,R,22,1
ChD_entr_4_BB,6,7,17,0,Correct,0.531389230279601,5,S03,M,R,22,4
ChD_entr_4_BB,6,7,18,0,Correct,0.512421320070862,6,S03,M,R,22,4
ChD_entr_4_BB,6,7,19,0,Correct,0.474469456938095,4,S03,M,R,22,4
ChD_entr_4_BB,6,7,20,0,Correct,0.939381913432444,5,S03,M,R,22,4
ChD_entr_4_BB,6,7,21,1,Correct,0.692687123187061,6,S03,M,R,22,1
ChD_entr_4_BB,6,7,22,1,Correct,0.863494912527094,5,S03,M,R,22,1
ChD_entr_4_BB,6,7,23,1,Correct,0.55985884494934,5,S03,M,R,22,1
ChD_entr_4_BB,6,7,24,1,Wrong,0.882451900082815,5,S03,M,R,22,2
ChD_entr_4_BB,6,7,25,0,Correct,0.721152983186184,5,S03,M,R,22,4
ChD_entr_4_BB,6,7,26,1,Correct,0.578838360499649,4,S03,M,R,22,1
ChD_entr_4_BB,6,7,27,0,Correct,0.85398911209486,5,S03,M,R,22,4
ChD_entr_4_BB,6,7,28,0,Correct,0.711667662741092,5,S03,M,R,22,4
ChD_entr_4_BB,6,7,29,0,Correct,0.654737308076292,4,S03,M,R,22,4
ChD_entr_4_BB,6,7,30,0,Correct,0.483955460042635,5,S03,M,R,22,4
ChD_entr_4_BB,6,7,31,1,Wrong,0.455487893394893,6,S03,M,R,22,2
ChD_entr_4_BB,6,7,32,0,Correct,0.806566947199462,6,S03,M,R,22,4
ChD_entr_4_BB,6,7,33,0,Correct,0.379585191162187,4,S03,M,R,22,4
ChD_entr_4_BB,6,7,34,1,Correct,0.550369087174186,6,S03,M,R,22,1
ChD_entr_4_BB,6,7,35,0,Correct,0.51241961339314,6,S03,M,R,22,4
ChD_entr_4_BB,6,7,36,1,Correct,0.464980040492665,4,S03,M,R,22,1
ChD_entr_4_BB,6,7,37,0,Correct,0.531392302290769,5,S03,M,R,22,4
ChD_entr_4_BB,6,7,38,0,Correct,0.740133181410492,5,S03,M,R,22,4
ChD_entr_4_BB,6,7,39,1,Correct,0.531422680956312,4,S03,M,R,22,1
ChD_entr_4_BB,6,7,40,0,Correct,0.578836653851031,5,S03,M,R,22,4
ChD_entr_4_BB,6,7,41,1,Correct,0.493448631173233,4,S03,M,R,22,1
ChD_entr_4_BB,6,7,42,1,Correct,0.664225700518,6,S03,M,R,22,1
ChD_entr_4_BB,6,7,43,1,Correct,1.02476686411363,5,S03,M,R,22,1
ChD_entr_4_BB,6,7,44,0,Correct,0.436513839163817,4,S03,M,R,22,4
ChD_entr_4_BB,6,7,45,1,Correct,0.635801824511436,6,S03,M,R,22,1
ChD_entr_4_BB,6,7,46,1,Correct,0.626271448077168,4,S03,M,R,22,1
ChD_entr_4_BB,6,7,47,0,Correct,0.521900155163894,4,S03,M,R,22,4
ChD_entr_4_BB,6,7,48,1,Correct,0.51241961339314,4,S03,M,R,22,1
ChD_entr_4_BB,6,7,49,1,Correct,0.692693267180293,5,S03,M,R,22,1
ChD_entr_4_BB,6,7,50,1,Correct,0.626281346726464,4,S03,M,R,22,1
ChD_entr_4_BB,6,7,51,0,Correct,0.446003938283247,6,S03,M,R,22,4
ChD_entr_4_BB,6,7,52,1,Correct,0.540887521399709,6,S03,M,R,22,1
ChD_entr_4_BB,6,7,53,0,Correct,0.408049003153865,6,S03,M,R,22,4
ChD_entr_4_BB,6,7,54,0,Correct,0.408048661824141,4,S03,M,R,22,4
ChD_entr_4_BB,6,7,55,0,Correct,0.455490624061786,6,S03,M,R,22,4
ChD_entr_4_BB,6,7,56,0,Correct,0.379587921829079,6,S03,M,R,22,4
ChD_entr_4_BB,6,7,57,0,Correct,0.616780666283739,6,S03,M,R,22,4
ChD_entr_4_BB,6,7,58,1,Correct,0.455507690722588,6,S03,M,R,22,1
ChD_entr_4_BB,6,7,59,1,Correct,0.588320608962676,5,S03,M,R,22,1
ChD_entr_4_BB,6,7,60,1,Wrong,0.569347237391048,5,S03,M,R,22,2
ChD_entr_4_BB,6,7,61,0,Correct,0.512417565385695,4,S03,M,R,22,4
ChD_entr_4_BB,6,7,62,0,Wrong,0.872958387651597,6,S03,M,R,22,3
ChD_entr_4_BB,6,7,63,0,Correct,0.569346554731601,5,S03,M,R,22,4
ChD_entr_4_BB,6,7,64,1,Correct,0.455489258713787,5,S03,M,R,22,1
ChD_entr_4_BB,6,7,65,1,Correct,0.797081285424647,5,S03,M,R,22,1
ChD_entr_4_BB,6,7,66,1,Correct,0.853987746761413,5,S03,M,R,22,1
ChD_entr_4_BB,6,7,67,0,Correct,0.370090654712694,6,S03,M,R,22,4
ChD_entr_4_BB,6,7,68,1,Wrong,1.43276432592625,6,S03,M,R,22,2
ChD_entr_4_BB,6,7,69,0,Correct,0.446001890275802,5,S03,M,R,22,4
ChD_entr_4_BB,6,7,70,1,Correct,0.63576188851177,4,S03,M,R,22,1
ChD_entr_4_BB,6,7,71,1,Correct,1.06272350587707,5,S03,M,R,22,1
ChD_entr_4_BB,6,7,72,1,Correct,0.54088342539937,6,S03,M,R,22,1
ChD_entr_4_BB,1,7,1,0,Correct,1.1005701018963,5,S04,F,R,20,4
ChD_entr_4_BB,1,7,2,1,Correct,1.1479996054637,4,S04,F,R,20,1
ChD_entr_4_BB,1,7,3,1,Correct,0.664150265918579,4,S04,F,R,20,1
ChD_entr_4_BB,1,7,4,0,Correct,0.654707578002126,5,S04,F,R,20,4
ChD_entr_4_BB,1,7,5,0,Correct,1.0626136649109,4,S04,F,R,20,4
ChD_entr_4_BB,1,7,6,0,Correct,0.77800524085178,4,S04,F,R,20,4
ChD_entr_4_BB,1,7,7,0,Correct,0.749546105149784,4,S04,F,R,20,4
ChD_entr_4_BB,1,7,8,1,Correct,0.597749029195984,6,S04,F,R,20,1
ChD_entr_4_BB,1,7,9,1,Correct,0.82543713375635,5,S04,F,R,20,1
ChD_entr_4_BB,1,7,10,1,Correct,1.41367896304873,5,S04,F,R,20,1
ChD_entr_4_BB,1,7,11,0,Correct,0.787490254090517,4,S04,F,R,20,4
ChD_entr_4_BB,1,7,12,0,Correct,0.939290060740314,4,S04,F,R,20,4
ChD_entr_4_BB,1,7,13,0,Correct,0.834924195002532,4,S04,F,R,20,4
ChD_entr_4_BB,1,7,14,0,Correct,1.11953022975358,6,S04,F,R,20,4
ChD_entr_4_BB,1,7,15,1,Correct,0.749541667776066,5,S04,F,R,20,1
ChD_entr_4_BB,1,7,16,1,Correct,1.47056105315278,6,S04,F,R,20,1
ChD_entr_4_BB,1,7,17,1,Correct,0.98671956427861,6,S04,F,R,20,1
ChD_entr_4_BB,1,7,18,0,Correct,1.08159393139649,4,S04,F,R,20,4
ChD_entr_4_BB,1,7,19,1,Correct,1.39466012586781,4,S04,F,R,20,1
ChD_entr_4_BB,1,7,20,1,Correct,0.778002510184888,6,S04,F,R,20,1
ChD_entr_4_BB,1,7,21,0,Correct,0.996210721539683,5,S04,F,R,20,4
ChD_entr_4_BB,1,7,22,1,Correct,0.910824780986877,5,S04,F,R,20,1
ChD_entr_4_BB,1,7,23,0,Correct,0.806458573919372,6,S04,F,R,20,4
ChD_entr_4_BB,1,7,24,0,Correct,0.92031286622223,5,S04,F,R,20,4
ChD_entr_4_BB,1,7,25,1,Correct,0.721078094729455,6,S04,F,R,20,1
ChD_entr_4_BB,1,7,26,0,Correct,0.721072633366566,4,S04,F,R,20,4
ChD_entr_4_BB,1,7,27,0,Correct,0.986715126933996,5,S04,F,R,20,4
ChD_entr_4_BB,1,7,28,0,Correct,0.63569659149216,4,S04,F,R,20,4
ChD_entr_4_BB,1,7,29,1,Correct,0.616720079691731,4,S04,F,R,20,1
ChD_entr_4_BB,1,7,30,1,Correct,0.768514766308363,5,S04,F,R,20,1
ChD_entr_4_BB,1,7,31,1,Wrong,0.815949048520997,6,S04,F,R,20,2
ChD_entr_4_BB,1,7,32,1,Correct,1.31875988124229,6,S04,F,R,20,1
ChD_entr_4_BB,1,7,33,1,Correct,0.721078436030075,4,S04,F,R,20,1
ChD_entr_4_BB,1,7,34,1,Wrong,0.6831295083859,6,S04,F,R,20,2
ChD_entr_4_BB,1,7,35,0,Correct,0.702105337555986,6,S04,F,R,20,4
ChD_entr_4_BB,1,7,36,1,Correct,0.702109092241153,4,S04,F,R,20,1
ChD_entr_4_BB,1,7,37,1,Correct,0.967745441786246,6,S04,F,R,20,1
ChD_entr_4_BB,1,7,38,0,Correct,1.02466576125589,5,S04,F,R,20,4
ChD_entr_4_BB,1,7,39,0,Correct,0.759029070351971,4,S04,F,R,20,4
ChD_entr_4_BB,1,7,40,0,Correct,0.796969123336021,5,S04,F,R,20,4
ChD_entr_4_BB,1,7,41,0,Correct,0.759024974366184,5,S04,F,R,20,4
ChD_entr_4_BB,1,7,42,0,Correct,0.796977656695526,6,S04,F,R,20,4
ChD_entr_4_BB,1,7,43,1,Correct,0.55979361619975,4,S04,F,R,20,1
ChD_entr_4_BB,1,7,44,0,Correct,0.711591374812997,6,S04,F,R,20,4
ChD_entr_4_BB,1,7,45,1,Correct,0.749545422461233,5,S04,F,R,20,1
ChD_entr_4_BB,1,7,46,1,Wrong,0.768522275620489,5,S04,F,R,20,2
ChD_entr_4_BB,1,7,47,0,Correct,0.88235847724427,5,S04,F,R,20,4
ChD_entr_4_BB,1,7,48,0,Correct,0.787491619438515,5,S04,F,R,20,4
ChD_entr_4_BB,1,7,49,0,Correct,0.702102606889093,6,S04,F,R,20,4
ChD_entr_4_BB,1,7,50,1,Correct,0.597746981188539,4,S04,F,R,20,1
ChD_entr_4_BB,1,7,51,0,Correct,0.578776954711066,6,S04,F,R,20,4
ChD_entr_4_BB,1,7,52,0,Correct,0.692665721636149,6,S04,F,R,20,4
ChD_entr_4_BB,1,7,53,1,Correct,0.796976291347528,5,S04,F,R,20,1
ChD_entr_4_BB,1,7,54,1,Correct,1.88799447868078,5,S04,F,R,20,1
ChD_entr_4_BB,1,7,55,0,Correct,0.588261967949802,6,S04,F,R,20,4
ChD_entr_4_BB,1,7,56,1,Wrong,0.702100217551924,6,S04,F,R,20,2
ChD_entr_4_BB,1,7,57,0,Correct,0.759029411710799,5,S04,F,R,20,4
ChD_entr_4_BB,1,7,58,1,Correct,0.97722328704258,4,S04,F,R,20,1
ChD_entr_4_BB,1,7,59,1,Correct,1.05311977701203,4,S04,F,R,20,1
ChD_entr_4_BB,1,7,60,0,Correct,0.721073998714564,6,S04,F,R,20,4
ChD_entr_4_BB,1,7,61,0,Correct,0.664159823267255,4,S04,F,R,20,4
ChD_entr_4_BB,1,7,62,1,Correct,1.20493289560836,6,S04,F,R,20,1
ChD_entr_4_BB,1,7,63,1,Correct,0.929835426167119,6,S04,F,R,20,1
ChD_entr_4_BB,1,7,64,1,Correct,0.806457549930201,5,S04,F,R,20,1
ChD_entr_4_BB,1,7,65,0,Correct,0.730565155975637,5,S04,F,R,20,4
ChD_entr_4_BB,1,7,66,1,Correct,0.882363255889504,5,S04,F,R,20,1
ChD_entr_4_BB,1,7,67,1,Correct,0.834925901680253,4,S04,F,R,20,1
ChD_entr_4_BB,1,7,68,1,Correct,1.02467122258968,4,S04,F,R,20,1
ChD_entr_4_BB,1,7,69,0,Correct,0.683140089752851,6,S04,F,R,20,4
ChD_entr_4_BB,1,7,70,0,Correct,0.635695226173266,4,S04,F,R,20,4
ChD_entr_4_BB,1,7,71,0,Correct,0.901341815726482,6,S04,F,R,20,4
ChD_entr_4_BB,1,7,72,1,Correct,0.853890808153665,5,S04,F,R,20,1
ChD_entr_4_BB,2,0,1,1,Correct,0.825435768437455,5,S04,F,R,20,1
ChD_entr_4_BB,2,0,2,0,Correct,0.692609742979403,4,S04,F,R,20,4
ChD_entr_4_BB,2,0,3,0,Correct,1.12902104562672,4,S04,F,R,20,4
ChD_entr_4_BB,2,0,4,1,Correct,0.645177850074833,4,S04,F,R,20,1
ChD_entr_4_BB,2,0,5,0,Correct,0.67365439379646,6,S04,F,R,20,4
ChD_entr_4_BB,2,0,6,0,Correct,0.654679930003476,4,S04,F,R,20,4
ChD_entr_4_BB,2,0,7,0,Correct,0.759032825037139,6,S04,F,R,20,4
ChD_entr_4_BB,2,0,8,1,Correct,0.645191503409296,5,S04,F,R,20,1
ChD_entr_4_BB,2,0,9,1,Correct,0.683131215063622,6,S04,F,R,20,1
ChD_entr_4_BB,2,0,10,1,Correct,0.607233701104997,4,S04,F,R,20,1
ChD_entr_4_BB,2,0,11,0,Correct,0.616746362371487,6,S04,F,R,20,4
ChD_entr_4_BB,2,0,12,1,Correct,0.721081849385519,5,S04,F,R,20,1
ChD_entr_4_BB,2,0,13,0,Correct,0.967746465775417,6,S04,F,R,20,4
ChD_entr_4_BB,2,0,14,1,Correct,0.702106361574261,6,S04,F,R,20,1
ChD_entr_4_BB,2,0,15,0,Correct,0.588256847945741,4,S04,F,R,20,4
ChD_entr_4_BB,2,0,16,1,Correct,0.550322938954923,5,S04,F,R,20,1
ChD_entr_4_BB,2,0,17,0,Correct,0.796971854002913,5,S04,F,R,20,4
ChD_entr_4_BB,2,0,18,1,Wrong,1.49902121290215,6,S04,F,R,20,2
ChD_entr_4_BB,2,0,19,0,Correct,0.740052899881266,6,S04,F,R,20,4
ChD_entr_4_BB,2,0,20,1,Correct,0.96774236978963,4,S04,F,R,20,1
ChD_entr_4_BB,2,0,21,1,Correct,0.929786956793396,6,S04,F,R,20,1
ChD_entr_4_BB,2,0,22,1,Correct,1.29979565739923,6,S04,F,R,20,1
ChD_entr_4_BB,2,0,23,1,Correct,1.18593829312886,4,S04,F,R,20,1
ChD_entr_4_BB,2,0,24,0,Correct,0.749539961127448,5,S04,F,R,20,4
ChD_entr_4_BB,2,0,25,1,Correct,1.61287140919012,5,S04,F,R,20,1
ChD_entr_4_BB,2,0,26,0,Correct,1.12902514161251,5,S04,F,R,20,4
ChD_entr_4_BB,2,0,27,0,Correct,1.70773314699181,6,S04,F,R,20,4
ChD_entr_4_BB,2,0,28,0,Correct,0.910822732979432,5,S04,F,R,20,4
ChD_entr_4_BB,2,0,29,1,Correct,0.74005324121099,5,S04,F,R,20,1
ChD_entr_4_BB,2,0,30,0,Correct,0.64517409541877,6,S04,F,R,20,4
ChD_entr_4_BB,2,0,31,0,Correct,1.33773127306777,6,S04,F,R,20,4
ChD_entr_4_BB,2,0,32,1,Correct,0.559803173548426,4,S04,F,R,20,1
ChD_entr_4_BB,2,0,33,0,Correct,0.71159820149478,4,S04,F,R,20,4
ChD_entr_4_BB,2,0,34,0,Correct,0.692617252320633,5,S04,F,R,20,4
ChD_entr_4_BB,2,0,35,1,Correct,0.626209530275082,6,S04,F,R,20,1
ChD_entr_4_BB,2,0,36,1,Wrong,0.939288012703764,6,S04,F,R,20,2
ChD_entr_4_BB,2,0,37,0,Correct,0.759021561039845,4,S04,F,R,20,4
ChD_entr_4_BB,2,0,38,1,Correct,0.834931704343762,6,S04,F,R,20,1
ChD_entr_4_BB,2,0,39,0,Correct,0.692617252291529,5,S04,F,R,20,4
ChD_entr_4_BB,2,0,40,0,Correct,0.759027705033077,5,S04,F,R,20,4
ChD_entr_4_BB,2,0,41,0,Correct,0.901341815755586,5,S04,F,R,20,4
ChD_entr_4_BB,2,0,42,1,Correct,0.626230692921672,4,S04,F,R,20,1
ChD_entr_4_BB,2,0,43,0,Correct,1.04363885972998,6,S04,F,R,20,4
ChD_entr_4_BB,2,0,44,1,Correct,0.740056654537329,5,S04,F,R,20,1
ChD_entr_4_BB,2,0,45,0,Correct,0.740054606558988,5,S04,F,R,20,4
ChD_entr_4_BB,2,0,46,0,Correct,1.21440015949775,4,S04,F,R,20,4
ChD_entr_4_BB,2,0,47,1,Correct,0.692622030965867,4,S04,F,R,20,1
ChD_entr_4_BB,2,0,48,1,Correct,0.702106020215433,5,S04,F,R,20,1
ChD_entr_4_BB,2,0,49,0,Correct,0.815951437858166,4,S04,F,R,20,4
ChD_entr_4_BB,2,0,50,1,Correct,0.891846562479623,4,S04,F,R,20,1
ChD_entr_4_BB,2,0,51,0,Correct,0.683132921741344,5,S04,F,R,20,4
ChD_entr_4_BB,2,0,52,1,Correct,0.673642447168822,4,S04,F,R,20,1
ChD_entr_4_BB,2,0,53,0,Correct,0.616725540996413,4,S04,F,R,20,4
ChD_entr_4_BB,2,0,54,1,Correct,0.825435085748904,6,S04,F,R,20,1
ChD_entr_4_BB,2,0,55,1,Wrong,0.958256332561723,5,S04,F,R,20,2
ChD_entr_4_BB,2,0,56,1,Wrong,1.23337428201921,4,S04,F,R,20,2
ChD_entr_4_BB,2,0,57,1,Correct,0.692616910961806,5,S04,F,R,20,1
ChD_entr_4_BB,2,0,58,1,Wrong,0.787490936779068,6,S04,F,R,20,2
ChD_entr_4_BB,2,0,59,1,Correct,1.38517340595135,4,S04,F,R,20,1
ChD_entr_4_BB,2,0,60,1,Correct,0.977222945712856,6,S04,F,R,20,1
ChD_entr_4_BB,2,0,61,0,Correct,0.635698980829329,4,S04,F,R,20,4
ChD_entr_4_BB,2,0,62,0,Correct,0.711590009464999,6,S04,F,R,20,4
ChD_entr_4_BB,2,0,63,1,Correct,0.664155727252364,5,S04,F,R,20,1
ChD_entr_4_BB,2,0,64,0,Correct,0.645182628749171,6,S04,F,R,20,4
ChD_entr_4_BB,2,0,65,0,Correct,0.578772858696175,5,S04,F,R,20,4
ChD_entr_4_BB,2,0,66,0,Correct,0.711592057472444,4,S04,F,R,20,4
ChD_entr_4_BB,2,0,67,0,Correct,0.597751418504049,6,S04,F,R,20,4
ChD_entr_4_BB,2,0,68,1,Wrong,0.711588644146104,4,S04,F,R,20,2
ChD_entr_4_BB,2,0,69,1,Correct,0.91081419964903,6,S04,F,R,20,1
ChD_entr_4_BB,2,0,70,1,Correct,0.749540985116619,5,S04,F,R,20,1
ChD_entr_4_BB,2,0,71,0,Correct,0.69262032431725,4,S04,F,R,20,4
ChD_entr_4_BB,2,0,72,0,Correct,0.645187748753233,5,S04,F,R,20,4
ChD_entr_4_BB,3,0,1,0,Correct,0.730635811985121,4,S04,F,R,20,4
ChD_entr_4_BB,3,0,2,1,Wrong,0.5503126989468,4,S04,F,R,20,2
ChD_entr_4_BB,3,0,3,1,Correct,0.550311333627906,4,S04,F,R,20,1
ChD_entr_4_BB,3,0,4,1,Correct,0.540829051056062,4,S04,F,R,20,1
ChD_entr_4_BB,3,0,5,1,Correct,0.616714276999119,4,S04,F,R,20,1
ChD_entr_4_BB,3,0,6,1,Correct,0.436459430662217,4,S04,F,R,20,1
ChD_entr_4_BB,3,0,7,0,Correct,0.597749711855431,5,S04,F,R,20,4
ChD_entr_4_BB,3,0,8,1,Wrong,0.550311674957629,6,S04,F,R,20,2
ChD_entr_4_BB,3,0,9,0,Correct,0.569287162768887,4,S04,F,R,20,4
ChD_entr_4_BB,3,0,10,0,Correct,0.47441723299562,5,S04,F,R,20,4
ChD_entr_4_BB,3,0,11,1,Correct,0.493392038147431,5,S04,F,R,20,1
ChD_entr_4_BB,3,0,12,0,Correct,0.531337893794989,4,S04,F,R,20,4
ChD_entr_4_BB,3,0,13,1,Correct,0.493387600802816,6,S04,F,R,20,1
ChD_entr_4_BB,3,0,14,1,Correct,0.74004675585893,6,S04,F,R,20,1
ChD_entr_4_BB,3,0,15,1,Wrong,1.16697918928985,5,S04,F,R,20,2
ChD_entr_4_BB,3,0,16,0,Correct,0.730570275979699,4,S04,F,R,20,4
ChD_entr_4_BB,3,0,17,0,Correct,0.673643812487717,5,S04,F,R,20,4
ChD_entr_4_BB,3,0,18,0,Correct,0.778000462206546,4,S04,F,R,20,4
ChD_entr_4_BB,3,0,19,0,Correct,0.683129849744728,5,S04,F,R,20,4
ChD_entr_4_BB,3,0,20,1,Correct,0.654675834017689,5,S04,F,R,20,1
ChD_entr_4_BB,3,0,21,0,Correct,0.654661497994675,6,S04,F,R,20,4
ChD_entr_4_BB,3,0,22,0,Correct,0.721072292036843,5,S04,F,R,20,4
ChD_entr_4_BB,3,0,23,1,Correct,0.521851173878531,5,S04,F,R,20,1
ChD_entr_4_BB,3,0,24,0,Correct,0.502871931382106,6,S04,F,R,20,4
ChD_entr_4_BB,3,0,25,1,Correct,0.502875344708446,5,S04,F,R,20,1
ChD_entr_4_BB,3,0,26,0,Correct,0.578774224015069,6,S04,F,R,20,4
ChD_entr_4_BB,3,0,27,0,Correct,1.32825069714454,6,S04,F,R,20,4
ChD_entr_4_BB,3,0,28,0,Correct,0.806464376582881,4,S04,F,R,20,4
ChD_entr_4_BB,3,0,29,0,Correct,0.531336869776715,6,S04,F,R,20,4
ChD_entr_4_BB,3,0,30,1,Correct,0.502881830060505,5,S04,F,R,20,1
ChD_entr_4_BB,3,0,31,1,Correct,0.569281018775655,6,S04,F,R,20,1
ChD_entr_4_BB,3,0,32,0,Correct,1.29978951340599,4,S04,F,R,20,4
ChD_entr_4_BB,3,0,33,0,Correct,0.730574371965486,5,S04,F,R,20,4
ChD_entr_4_BB,3,0,34,1,Correct,0.616715301017393,6,S04,F,R,20,1
ChD_entr_4_BB,3,0,35,0,Correct,0.654667300658184,5,S04,F,R,20,4
ChD_entr_4_BB,3,0,36,1,Correct,0.389035047098878,4,S04,F,R,20,1
ChD_entr_4_BB,3,0,37,1,Wrong,0.4933944274846,5,S04,F,R,20,2
ChD_entr_4_BB,3,0,38,1,Wrong,0.673643471157993,4,S04,F,R,20,2
ChD_entr_4_BB,3,0,39,0,Correct,0.578777296040789,6,S04,F,R,20,4
ChD_entr_4_BB,3,0,40,1,Correct,0.58826026127208,4,S04,F,R,20,1
ChD_entr_4_BB,3,0,41,1,Correct,0.635688058161759,6,S04,F,R,20,1
ChD_entr_4_BB,3,0,42,1,Wrong,1.16698055460874,6,S04,F,R,20,2
ChD_entr_4_BB,3,0,43,0,Correct,0.664161529915873,4,S04,F,R,20,4
ChD_entr_4_BB,3,0,44,1,Correct,0.521866875220439,5,S04,F,R,20,1
ChD_entr_4_BB,3,0,45,1,Wrong,0.815951096499339,5,S04,F,R,20,2
ChD_entr_4_BB,3,0,46,1,Correct,0.588254458608572,4,S04,F,R,20,1
ChD_entr_4_BB,3,0,47,1,Correct,0.63569659149216,6,S04,F,R,20,1
ChD_entr_4_BB,3,0,48,0,Correct,0.61671495968767,4,S04,F,R,20,4
ChD_entr_4_BB,3,0,49,1,Correct,0.53133106714231,4,S04,F,R,20,1
ChD_entr_4_BB,3,0,50,0,Correct,0.569283749442548,4,S04,F,R,20,4
ChD_entr_4_BB,3,0,51,1,Wrong,0.787487523452728,4,S04,F,R,20,2
ChD_entr_4_BB,3,0,52,0,Correct,0.512365477980347,5,S04,F,R,20,4
ChD_entr_4_BB,3,0,53,0,Correct,0.626208847586531,6,S04,F,R,20,4
ChD_entr_4_BB,3,0,54,0,Correct,0.474415867647622,6,S04,F,R,20,4
ChD_entr_4_BB,3,0,55,1,Correct,0.958258039210341,6,S04,F,R,20,1
ChD_entr_4_BB,3,0,56,1,Correct,0.645181263430277,5,S04,F,R,20,1
ChD_entr_4_BB,3,0,57,0,Correct,0.512368891306687,4,S04,F,R,20,4
ChD_entr_4_BB,3,0,58,0,Correct,1.05313001699105,5,S04,F,R,20,4
ChD_entr_4_BB,3,0,59,1,Correct,0.796980046032695,6,S04,F,R,20,1
ChD_entr_4_BB,3,0,60,1,Correct,0.920300236906041,5,S04,F,R,20,1
ChD_entr_4_BB,3,0,61,0,Correct,0.607236090442166,5,S04,F,R,20,4
ChD_entr_4_BB,3,0,62,1,Correct,0.464926075734547,5,S04,F,R,20,1
ChD_entr_4_BB,3,0,63,1,Wrong,0.702103972207988,6,S04,F,R,20,2
ChD_entr_4_BB,3,0,64,0,Correct,0.474416208977345,4,S04,F,R,20,4
ChD_entr_4_BB,3,0,65,0,Correct,0.550312016316457,6,S04,F,R,20,4
ChD_entr_4_BB,3,0,66,1,Correct,0.426988412087667,4,S04,F,R,20,1
ChD_entr_4_BB,3,0,67,0,Correct,0.578773200025898,6,S04,F,R,20,4
ChD_entr_4_BB,3,0,68,1,Wrong,0.559816144223441,6,S04,F,R,20,2
ChD_entr_4_BB,3,0,69,0,Correct,0.512365136650624,6,S04,F,R,20,4
ChD_entr_4_BB,3,0,70,0,Correct,0.483901563574909,6,S04,F,R,20,4
ChD_entr_4_BB,3,0,71,0,Wrong,1.25235796183115,5,S04,F,R,20,3
ChD_entr_4_BB,3,0,72,0,Correct,0.502881830060505,5,S04,F,R,20,4
ChD_entr_4_BB,4,7,1,0,Correct,0.540829051026958,4,S04,F,R,20,4
ChD_entr_4_BB,4,7,2,0,Correct,0.427025958764716,6,S04,F,R,20,4
ChD_entr_4_BB,4,7,3,1,Correct,0.502874320719275,4,S04,F,R,20,1
ChD_entr_4_BB,4,7,4,0,Correct,0.502877051386167,4,S04,F,R,20,4
ChD_entr_4_BB,4,7,5,0,Correct,0.455445158481598,5,S04,F,R,20,4
ChD_entr_4_BB,4,7,6,0,Correct,0.436472060007509,4,S04,F,R,20,4
ChD_entr_4_BB,4,7,7,1,Wrong,0.436472401337232,6,S04,F,R,20,2
ChD_entr_4_BB,4,7,8,1,Correct,0.559799077533535,5,S04,F,R,20,1
ChD_entr_4_BB,4,7,9,0,Correct,0.445950246564462,5,S04,F,R,20,4
ChD_entr_4_BB,4,7,10,1,Correct,0.588256847945741,4,S04,F,R,20,1
ChD_entr_4_BB,4,7,11,0,Correct,0.502879440723336,5,S04,F,R,20,4
ChD_entr_4_BB,4,7,12,1,Wrong,0.711597177476506,4,S04,F,R,20,2
ChD_entr_4_BB,4,7,13,0,Correct,0.464929489060887,4,S04,F,R,20,4
ChD_entr_4_BB,4,7,14,1,Correct,0.6262112369237,5,S04,F,R,20,1
ChD_entr_4_BB,4,7,15,0,Correct,0.597754831859493,6,S04,F,R,20,4
ChD_entr_4_BB,4,7,16,1,Correct,0.521844688555575,4,S04,F,R,20,1
ChD_entr_4_BB,4,7,17,0,Correct,0.559799418892362,5,S04,F,R,20,4
ChD_entr_4_BB,4,7,18,1,Wrong,0.597748005177709,6,S04,F,R,20,2
ChD_entr_4_BB,4,7,19,0,Correct,0.436468988010893,5,S04,F,R,20,4
ChD_entr_4_BB,4,7,20,0,Correct,0.445948539915844,6,S04,F,R,20,4
ChD_entr_4_BB,4,7,21,1,Wrong,0.417494524188805,5,S04,F,R,20,2
ChD_entr_4_BB,4,7,22,0,Correct,0.445964923917199,5,S04,F,R,20,4
ChD_entr_4_BB,4,7,23,1,Correct,0.740059385204222,5,S04,F,R,20,1
ChD_entr_4_BB,4,7,24,0,Correct,0.417493158840807,6,S04,F,R,20,4
ChD_entr_4_BB,4,7,25,1,Correct,0.597773605198017,6,S04,F,R,20,1
ChD_entr_4_BB,4,7,26,0,Correct,0.483901904904633,5,S04,F,R,20,4
ChD_entr_4_BB,4,7,27,0,Correct,0.455442427814705,6,S04,F,R,20,4
ChD_entr_4_BB,4,7,28,1,Correct,0.597746298529091,5,S04,F,R,20,1
ChD_entr_4_BB,4,7,29,1,Correct,0.607233701104997,5,S04,F,R,20,1
ChD_entr_4_BB,4,7,30,0,Correct,0.389035047098878,4,S04,F,R,20,4
ChD_entr_4_BB,4,7,31,1,Correct,0.455442769173533,5,S04,F,R,20,1
ChD_entr_4_BB,4,7,32,1,Correct,0.417495206848253,4,S04,F,R,20,1
ChD_entr_4_BB,4,7,33,0,Correct,0.436470353329787,4,S04,F,R,20,4
ChD_entr_4_BB,4,7,34,0,Correct,0.43646967067034,5,S04,F,R,20,4
ChD_entr_4_BB,4,7,35,0,Correct,0.370051367286942,6,S04,F,R,20,4
ChD_entr_4_BB,4,7,36,1,Correct,0.531332432461204,6,S04,F,R,20,1
ChD_entr_4_BB,4,7,37,1,Correct,0.483897126259399,4,S04,F,R,20,1
ChD_entr_4_BB,4,7,38,0,Correct,0.588257871934911,4,S04,F,R,20,4
ChD_entr_4_BB,4,7,39,0,Correct,0.853901048161788,6,S04,F,R,20,4
ChD_entr_4_BB,4,7,40,1,Correct,0.474414843658451,5,S04,F,R,20,1
