version,block,frequency,jitter,trial,change,response,RT,loads,ID,gender,hand,age,resp_type
ChD_v5_MB,1,4,false,1,1,Correct,0.650338961124521,6,S01,F,R,23,1
ChD_v5_MB,1,4,false,2,1,Wrong,0.620323768374956,7,S01,F,R,23,2
ChD_v5_MB,1,4,false,3,0,Correct,0.670349317179503,7,S01,F,R,23,4
ChD_v5_MB,1,4,false,4,0,Correct,0.66034379781865,6,S01,F,R,23,4
ChD_v5_MB,1,4,false,5,0,Correct,0.830415440284637,7,S01,F,R,23,4
ChD_v5_MB,1,4,false,6,1,Correct,1.65078713186783,5,S01,F,R,23,1
ChD_v5_MB,1,4,false,7,0,Wrong,1.10053715635827,5,S01,F,R,23,3
ChD_v5_MB,1,4,false,8,1,Correct,0.7703891507863,6,S01,F,R,23,1
ChD_v5_MB,1,4,false,9,0,Wrong,1.24060179807628,6,S01,F,R,23,3
ChD_v5_MB,1,4,false,10,0,Correct,0.850425455005802,7,S01,F,R,23,4
ChD_v5_MB,1,4,false,11,1,Wrong,0.950470408613478,7,S01,F,R,23,2
ChD_v5_MB,1,4,false,12,1,Correct,0.730372193343314,5,S01,F,R,23,1
ChD_v5_MB,1,4,false,13,1,Correct,1.34064572768341,7,S01,F,R,23,1
ChD_v5_MB,1,4,false,14,1,Correct,0.710364567955226,6,S01,F,R,23,1
ChD_v5_MB,1,4,false,15,1,Correct,0.660349941819613,5,S01,F,R,23,1
ChD_v5_MB,1,4,false,16,1,Wrong,0.820412651590223,7,S01,F,R,23,2
ChD_v5_MB,1,4,false,17,1,Wrong,0.81040815622991,5,S01,F,R,23,2
ChD_v5_MB,1,4,false,18,1,Correct,0.690352163900075,7,S01,F,R,23,1
ChD_v5_MB,1,4,false,19,0,Correct,0.950492253950893,6,S01,F,R,23,4
ChD_v5_MB,1,4,false,20,1,Wrong,1.48070934540134,7,S01,F,R,23,2
ChD_v5_MB,1,4,false,21,0,Correct,0.740379760704791,6,S01,F,R,23,4
ChD_v5_MB,1,4,false,22,0,Correct,0.860428585033578,6,S01,F,R,23,4
ChD_v5_MB,1,4,false,23,0,Correct,1.44068965729146,6,S01,F,R,23,4
ChD_v5_MB,1,4,false,24,0,Correct,0.630325191735469,5,S01,F,R,23,4
ChD_v5_MB,1,4,false,25,0,Correct,1.00049152008387,6,S01,F,R,23,4
ChD_v5_MB,1,4,false,26,1,Correct,0.420232837159519,5,S01,F,R,23,1
ChD_v5_MB,1,4,false,27,1,Wrong,1.14055582046806,7,S01,F,R,23,2
ChD_v5_MB,1,4,false,28,0,Correct,0.610317225014019,5,S01,F,R,23,4
ChD_v5_MB,1,4,false,29,1,Correct,0.630325191735469,7,S01,F,R,23,1
ChD_v5_MB,1,4,false,30,0,Wrong,1.12054580574644,6,S01,F,R,23,3
ChD_v5_MB,1,4,false,31,0,Correct,0.970479740668375,5,S01,F,R,23,4
ChD_v5_MB,1,4,false,32,0,Correct,1.06053009758368,6,S01,F,R,23,4
ChD_v5_MB,1,4,false,33,1,Correct,1.25060390410306,7,S01,F,R,23,1
ChD_v5_MB,1,4,false,34,0,Correct,1.32063537162843,7,S01,F,R,23,4
ChD_v5_MB,1,4,false,35,1,Correct,0.850424431005717,5,S01,F,R,23,1
ChD_v5_MB,1,4,false,36,1,Correct,0.850426479006342,6,S01,F,R,23,1
ChD_v5_MB,1,4,false,37,0,Correct,1.39066786315389,7,S01,F,R,23,4
ChD_v5_MB,1,4,false,38,0,Correct,0.690351822566713,6,S01,F,R,23,4
ChD_v5_MB,1,4,false,39,1,Correct,1.21058592265999,5,S01,F,R,23,1
ChD_v5_MB,1,4,false,40,0,Correct,0.890443095115511,5,S01,F,R,23,4
ChD_v5_MB,1,4,false,41,0,Correct,0.920459653198523,5,S01,F,R,23,4
ChD_v5_MB,1,4,false,42,1,Correct,0.630325533068831,5,S01,F,R,23,1
ChD_v5_MB,2,7,false,1,1,Correct,0.72037384198351,7,S01,F,R,23,1
ChD_v5_MB,2,7,false,2,1,Correct,1.15055997449547,5,S01,F,R,23,1
ChD_v5_MB,2,7,false,3,0,Correct,0.600313070987067,6,S01,F,R,23,4
ChD_v5_MB,2,7,false,4,0,Wrong,1.30062774624034,7,S01,F,R,23,3
ChD_v5_MB,2,7,false,5,0,Wrong,0.660346528485543,7,S01,F,R,23,3
ChD_v5_MB,2,7,false,6,0,Correct,0.700358024594743,5,S01,F,R,23,4
ChD_v5_MB,2,7,false,7,0,Wrong,1.13055269044074,7,S01,F,R,23,3
ChD_v5_MB,2,7,false,8,1,Correct,0.740375664703997,5,S01,F,R,23,1
ChD_v5_MB,2,7,false,9,1,Correct,1.05051536222115,6,S01,F,R,23,1
ChD_v5_MB,2,7,false,10,1,Correct,0.78039535281433,6,S01,F,R,23,1
ChD_v5_MB,2,7,false,11,0,Wrong,0.700357683261382,6,S01,F,R,23,3
ChD_v5_MB,2,7,false,12,1,Correct,0.630326215735554,7,S01,F,R,23,1
ChD_v5_MB,2,7,false,13,0,Wrong,1.52072596151051,5,S01,F,R,23,3
ChD_v5_MB,2,7,false,14,1,Correct,0.620321379041425,5,S01,F,R,23,1
ChD_v5_MB,2,7,false,15,0,Correct,0.700357683260927,7,S01,F,R,23,4
ChD_v5_MB,2,7,false,16,1,Correct,0.590306868959037,6,S01,F,R,23,1
ChD_v5_MB,2,7,false,17,1,Wrong,0.950471773946924,6,S01,F,R,23,2
ChD_v5_MB,2,7,false,18,1,Correct,0.75037913606468,6,S01,F,R,23,1
ChD_v5_MB,2,7,false,19,1,Correct,0.690352846566798,5,S01,F,R,23,1
ChD_v5_MB,2,7,false,20,1,Correct,0.770388126786215,5,S01,F,R,23,1
ChD_v5_MB,2,7,false,21,1,Correct,0.630328263736178,5,S01,F,R,23,1
ChD_v5_MB,2,7,false,22,0,Correct,0.680350740539561,6,S01,F,R,23,4
ChD_v5_MB,2,7,false,23,0,Wrong,0.950471773946924,7,S01,F,R,23,3
ChD_v5_MB,2,7,false,24,0,Correct,1.12054648841317,7,S01,F,R,23,4
ChD_v5_MB,2,7,false,25,1,Correct,0.780393646147068,6,S01,F,R,23,1
ChD_v5_MB,2,7,false,26,1,Correct,1.27061323615841,5,S01,F,R,23,1
ChD_v5_MB,2,7,false,27,0,Correct,0.97047871666829,7,S01,F,R,23,4
ChD_v5_MB,2,7,false,28,1,Correct,1.43068447926351,6,S01,F,R,23,1
ChD_v5_MB,2,7,false,29,0,Correct,0.940468643920058,7,S01,F,R,23,4
ChD_v5_MB,2,7,false,30,1,Correct,0.820418795591186,6,S01,F,R,23,1
ChD_v5_MB,2,7,false,31,0,Correct,0.690353870566882,5,S01,F,R,23,4
ChD_v5_MB,2,7,false,32,1,Correct,1.16056412852287,6,S01,F,R,23,1
ChD_v5_MB,2,7,false,33,0,Correct,0.90045339314388,7,S01,F,R,23,4
ChD_v5_MB,2,7,false,34,0,Correct,0.640330711096321,6,S01,F,R,23,4
ChD_v5_MB,2,7,false,35,1,Correct,0.590308234292484,7,S01,F,R,23,1
ChD_v5_MB,2,7,false,36,1,Correct,1.12071025653026,7,S01,F,R,23,1
ChD_v5_MB,2,7,false,37,0,Correct,0.760385679426072,5,S01,F,R,23,4
ChD_v5_MB,2,7,false,38,0,Correct,0.73037116934323,5,S01,F,R,23,4
ChD_v5_MB,2,7,false,39,0,Correct,1.63077745847957,5,S01,F,R,23,4
ChD_v5_MB,2,7,false,40,1,Correct,0.720365991315739,7,S01,F,R,23,1
ChD_v5_MB,2,7,false,41,0,Correct,1.24059975007565,5,S01,F,R,23,4
ChD_v5_MB,2,7,false,42,0,Correct,0.650335547790451,6,S01,F,R,23,4
ChD_v5_MB,3,4,true,1,0,Correct,0.850425455005802,6,S01,F,R,23,4
ChD_v5_MB,3,4,true,2,1,Correct,0.670343855845263,6,S01,F,R,23,1
ChD_v5_MB,3,4,true,3,0,Wrong,1.20058210996594,6,S01,F,R,23,3
ChD_v5_MB,3,4,true,4,1,Wrong,1.43068482059688,6,S01,F,R,23,2
ChD_v5_MB,3,4,true,5,0,Correct,0.690353870567337,5,S01,F,R,23,4
ChD_v5_MB,3,4,true,6,1,Correct,0.690354211900244,6,S01,F,R,23,1
ChD_v5_MB,3,4,true,7,0,Wrong,0.800480511585283,7,S01,F,R,23,3
ChD_v5_MB,3,4,true,8,0,Correct,0.960475245308062,7,S01,F,R,23,4
ChD_v5_MB,3,4,true,9,1,Correct,0.680350399206654,6,S01,F,R,23,1
ChD_v5_MB,3,4,true,10,1,Correct,0.820411968923499,6,S01,F,R,23,1
ChD_v5_MB,3,4,true,11,0,Wrong,0.610316883680657,7,S01,F,R,23,3
ChD_v5_MB,3,4,true,12,0,Correct,1.1205461470798,5,S01,F,R,23,4
ChD_v5_MB,3,4,true,13,1,Wrong,1.6607902618947,5,S01,F,R,23,2
ChD_v5_MB,3,4,true,14,1,Wrong,1.10053749769163,5,S01,F,R,23,2
ChD_v5_MB,3,4,true,15,0,Correct,0.84041993564495,5,S01,F,R,23,4
ChD_v5_MB,3,4,true,16,0,Correct,1.29062359221294,7,S01,F,R,23,4
ChD_v5_MB,3,4,true,17,0,Correct,1.14055616180142,6,S01,F,R,23,4
ChD_v5_MB,3,4,true,18,0,Correct,0.91046164317208,5,S01,F,R,23,4
ChD_v5_MB,3,4,true,19,1,Wrong,1.44069921462649,6,S01,F,R,23,2
ChD_v5_MB,3,4,true,20,1,Wrong,0.660350965820153,6,S01,F,R,23,2
ChD_v5_MB,3,4,true,21,1,Correct,0.57029856090468,7,S01,F,R,23,1
ChD_v5_MB,3,4,true,22,0,Correct,0.780395011480969,5,S01,F,R,23,4
ChD_v5_MB,3,4,true,23,0,Correct,1.42068134923619,6,S01,F,R,23,4
ChD_v5_MB,3,4,true,24,0,Correct,1.25060629343704,5,S01,F,R,23,4
ChD_v5_MB,3,4,true,25,1,Wrong,1.02050153480549,5,S01,F,R,23,2
ChD_v5_MB,3,4,true,26,0,Wrong,1.21058831199397,5,S01,F,R,23,3
ChD_v5_MB,3,4,true,27,1,Wrong,1.11054540638647,6,S01,F,R,23,2
ChD_v5_MB,3,4,true,28,1,Correct,1.54073563489922,7,S01,F,R,23,1
ChD_v5_MB,3,4,true,29,0,Correct,1.11054165171904,6,S01,F,R,23,4
ChD_v5_MB,3,4,true,30,0,Correct,1.26060874079719,7,S01,F,R,23,4
ChD_v5_MB,3,4,true,31,1,Wrong,1.42068612790371,5,S01,F,R,23,2
ChD_v5_MB,3,4,true,32,0,Correct,0.750395861401216,7,S01,F,R,23,4
ChD_v5_MB,3,4,true,33,0,Correct,0.860432339700556,7,S01,F,R,23,4
ChD_v5_MB,3,4,true,34,1,Wrong,1.39066752182098,7,S01,F,R,23,2
ChD_v5_MB,3,4,true,35,1,Wrong,0.620323427042049,7,S01,F,R,23,2
ChD_v5_MB,3,4,true,36,1,Correct,0.5903085756263,5,S01,F,R,23,1
ChD_v5_MB,3,4,true,37,1,Correct,0.690356259900868,7,S01,F,R,23,1
ChD_v5_MB,3,4,true,38,0,Correct,0.810410545563441,6,S01,F,R,23,4
ChD_v5_MB,3,4,true,39,1,Wrong,1.09053300233086,7,S01,F,R,23,2
ChD_v5_MB,3,4,true,40,0,Correct,0.740375323370636,5,S01,F,R,23,4
ChD_v5_MB,3,4,true,41,1,Correct,0.640330028429598,7,S01,F,R,23,1
ChD_v5_MB,3,4,true,42,1,Correct,0.800408439536659,5,S01,F,R,23,1
ChD_v5_MB,4,7,false,1,1,Correct,0.580304762931801,6,S01,F,R,23,1
ChD_v5_MB,4,7,false,2,0,Wrong,0.960477634641593,6,S01,F,R,23,3
ChD_v5_MB,4,7,false,3,0,Wrong,0.670346245179248,7,S01,F,R,23,3
ChD_v5_MB,4,7,false,4,0,Correct,0.680348692539392,6,S01,F,R,23,4
ChD_v5_MB,4,7,false,5,0,Correct,1.31063121760103,6,S01,F,R,23,4
ChD_v5_MB,4,7,false,6,1,Correct,0.88043791708802,5,S01,F,R,23,1
ChD_v5_MB,4,7,false,7,1,Wrong,1.62077091511818,5,S01,F,R,23,2
ChD_v5_MB,4,7,false,8,0,Correct,0.780393304813706,5,S01,F,R,23,4
ChD_v5_MB,4,7,false,9,0,Correct,0.560294748210636,5,S01,F,R,23,4
ChD_v5_MB,4,7,false,10,1,Correct,0.63032655706937,7,S01,F,R,23,1
ChD_v5_MB,4,7,false,11,0,Correct,0.670344197179079,7,S01,F,R,23,4
ChD_v5_MB,4,7,false,12,1,Correct,0.940465913253165,7,S01,F,R,23,1
ChD_v5_MB,4,7,false,13,1,Correct,0.850424772339534,5,S01,F,R,23,1
ChD_v5_MB,4,7,false,14,0,Correct,1.50071697078897,6,S01,F,R,23,4
ChD_v5_MB,4,7,false,15,1,Wrong,0.730372193343769,7,S01,F,R,23,2
ChD_v5_MB,4,7,false,16,1,Wrong,0.880439623754828,5,S01,F,R,23,2
ChD_v5_MB,4,7,false,17,1,Wrong,0.720366673982462,6,S01,F,R,23,2
ChD_v5_MB,4,7,false,18,0,Correct,0.810423174898729,5,S01,F,R,23,4
ChD_v5_MB,4,7,false,19,0,Wrong,1.13055815177544,7,S01,F,R,23,3
ChD_v5_MB,4,7,false,20,0,Wrong,0.630325874402192,5,S01,F,R,23,3
ChD_v5_MB,4,7,false,21,0,Correct,0.820419136925002,6,S01,F,R,23,4
ChD_v5_MB,4,7,false,22,1,Correct,0.940467278586157,7,S01,F,R,23,1
ChD_v5_MB,4,7,false,23,1,Correct,0.650402790469047,5,S01,F,R,23,1
ChD_v5_MB,4,7,false,24,0,Correct,0.770390516120201,6,S01,F,R,23,4
ChD_v5_MB,4,7,false,25,0,Correct,0.840420276978766,5,S01,F,R,23,4
ChD_v5_MB,4,7,false,26,1,Correct,0.760389775426865,7,S01,F,R,23,1
ChD_v5_MB,4,7,false,27,0,Correct,0.630329287736263,6,S01,F,R,23,4
ChD_v5_MB,4,7,false,28,0,Wrong,0.900449979809809,5,S01,F,R,23,3
ChD_v5_MB,4,7,false,29,0,Correct,0.680353471207363,7,S01,F,R,23,4
ChD_v5_MB,4,7,false,30,1,Wrong,1.42068066656947,7,S01,F,R,23,2
ChD_v5_MB,4,7,false,31,0,Wrong,1.7008191660067,7,S01,F,R,23,3
ChD_v5_MB,4,7,false,32,1,Correct,1.05051604488833,5,S01,F,R,23,1
ChD_v5_MB,4,7,false,33,0,Correct,0.740376688704537,6,S01,F,R,23,4
ChD_v5_MB,4,7,false,34,1,Wrong,0.820413675590762,7,S01,F,R,23,2
ChD_v5_MB,4,7,false,35,0,Correct,0.930460052558497,6,S01,F,R,23,4
ChD_v5_MB,4,7,false,36,0,Correct,1.19058000393916,5,S01,F,R,23,4
ChD_v5_MB,4,7,false,37,1,Correct,0.790399848175098,7,S01,F,R,23,1
ChD_v5_MB,4,7,false,38,1,Correct,0.820417771591556,5,S01,F,R,23,1
ChD_v5_MB,4,7,false,39,1,Wrong,1.50071765345569,7,S01,F,R,23,2
ChD_v5_MB,4,7,false,40,1,Correct,0.810407473562732,6,S01,F,R,23,1
ChD_v5_MB,4,7,false,41,1,Wrong,1.5707470729809,6,S01,F,R,23,2
ChD_v5_MB,4,7,false,42,1,Correct,0.570299926238126,6,S01,F,R,23,1
ChD_v5_MB,5,0,true,1,0,Correct,0.770395294787263,5,S01,F,R,23,4
ChD_v5_MB,5,0,true,2,1,Correct,0.860430291700386,7,S01,F,R,23,1
ChD_v5_MB,5,0,true,3,0,Correct,0.85042613767298,7,S01,F,R,23,4
ChD_v5_MB,5,0,true,4,0,Correct,0.920458287864621,6,S01,F,R,23,4
ChD_v5_MB,5,0,true,5,1,Correct,0.610319955681366,7,S01,F,R,23,1
ChD_v5_MB,5,0,true,6,1,Correct,1.05051467955443,5,S01,F,R,23,1
ChD_v5_MB,5,0,true,7,0,Correct,0.900448273143002,7,S01,F,R,23,4
ChD_v5_MB,5,0,true,8,0,Correct,0.650334523790366,6,S01,F,R,23,4
ChD_v5_MB,5,0,true,9,0,Correct,1.29063280821461,6,S01,F,R,23,4
ChD_v5_MB,5,0,true,10,0,Correct,0.72036735664964,6,S01,F,R,23,4
ChD_v5_MB,5,0,true,11,1,Correct,1.01049601544464,6,S01,F,R,23,1
ChD_v5_MB,5,0,true,12,1,Correct,0.610315859680572,6,S01,F,R,23,1
ChD_v5_MB,5,0,true,13,0,Correct,0.710362861288872,6,S01,F,R,23,4
ChD_v5_MB,5,0,true,14,0,Correct,1.04051154952711,6,S01,F,R,23,4
ChD_v5_MB,5,0,true,15,0,Correct,0.910453451170947,5,S01,F,R,23,4
ChD_v5_MB,5,0,true,16,0,Correct,1.54073597623213,7,S01,F,R,23,4
ChD_v5_MB,5,0,true,17,0,Correct,0.840420959645035,7,S01,F,R,23,4
ChD_v5_MB,5,0,true,18,1,Correct,0.670346245179248,5,S01,F,R,23,1
ChD_v5_MB,5,0,true,19,0,Correct,1.11054267571912,6,S01,F,R,23,4
ChD_v5_MB,5,0,true,20,1,Correct,0.890443095115511,7,S01,F,R,23,1
ChD_v5_MB,5,0,true,21,1,Wrong,0.810406790896009,6,S01,F,R,23,2
ChD_v5_MB,5,0,true,22,1,Correct,0.780396718147776,7,S01,F,R,23,1
ChD_v5_MB,5,0,true,23,1,Correct,1.3906709351546,5,S01,F,R,23,1
ChD_v5_MB,5,0,true,24,1,Wrong,0.69035455323406,5,S01,F,R,23,2
ChD_v5_MB,5,0,true,25,0,Correct,0.850425455006257,5,S01,F,R,23,4
ChD_v5_MB,5,0,true,26,0,Correct,0.900446225142832,7,S01,F,R,23,4
ChD_v5_MB,5,0,true,27,1,Correct,0.770389833453478,5,S01,F,R,23,1
ChD_v5_MB,5,0,true,28,1,Wrong,0.820431424926928,6,S01,F,R,23,2
ChD_v5_MB,5,0,true,29,1,Correct,0.620324451042134,5,S01,F,R,23,1
ChD_v5_MB,5,0,true,30,0,Correct,0.690352505233436,5,S01,F,R,23,4
ChD_v5_MB,5,0,true,31,1,Wrong,1.30063013557433,5,S01,F,R,23,2
ChD_v5_MB,5,0,true,32,1,Wrong,0.700357000594204,6,S01,F,R,23,2
ChD_v5_MB,5,0,true,33,0,Correct,0.680357225874341,7,S01,F,R,23,4
ChD_v5_MB,5,0,true,34,1,Correct,0.600313753653336,5,S01,F,R,23,1
ChD_v5_MB,5,0,true,35,1,Correct,0.890445825782858,7,S01,F,R,23,1
ChD_v5_MB,5,0,true,36,0,Correct,0.860434046367363,7,S01,F,R,23,4
ChD_v5_MB,5,0,true,37,0,Correct,1.58075293367557,7,S01,F,R,23,4
ChD_v5_MB,5,0,true,38,1,Correct,0.720367015315824,5,S01,F,R,23,1
ChD_v5_MB,5,0,true,39,1,Correct,1.40067304118138,7,S01,F,R,23,1
ChD_v5_MB,5,0,true,40,0,Wrong,1.22059041802121,6,S01,F,R,23,3
ChD_v5_MB,5,0,true,41,1,Correct,1.35064988171082,5,S01,F,R,23,1
ChD_v5_MB,5,0,true,42,0,Correct,1.01049669811136,6,S01,F,R,23,4
ChD_v5_MB,6,0,true,1,0,Correct,1.41068777654436,6,S01,F,R,23,4
ChD_v5_MB,6,0,true,2,1,Correct,0.76038533809271,7,S01,F,R,23,1
ChD_v5_MB,6,0,true,3,1,Correct,1.5507493462612,7,S01,F,R,23,1
ChD_v5_MB,6,0,true,4,1,Correct,0.900457830478035,6,S01,F,R,23,1
ChD_v5_MB,6,0,true,5,1,Wrong,1.47070553270729,7,S01,F,R,23,2
ChD_v5_MB,6,0,true,6,1,Correct,0.610327465015776,5,S01,F,R,23,1
ChD_v5_MB,6,0,true,7,1,Correct,1.61076983309149,5,S01,F,R,23,1
ChD_v5_MB,6,0,true,8,1,Correct,1.90089780921976,6,S01,F,R,23,1
ChD_v5_MB,6,0,true,9,0,Wrong,1.38066609846047,7,S01,F,R,23,3
ChD_v5_MB,6,0,true,10,0,Correct,1.240602480743,6,S01,F,R,23,4
ChD_v5_MB,6,0,true,11,1,Correct,1.28061909685262,6,S01,F,R,23,1
ChD_v5_MB,6,0,true,12,0,Correct,2.22104200209814,7,S01,F,R,23,4
ChD_v5_MB,6,0,true,13,0,Correct,0.650337595791075,6,S01,F,R,23,4
ChD_v5_MB,6,0,true,14,1,Correct,0.650335206457544,5,S01,F,R,23,1
ChD_v5_MB,6,0,true,15,1,Correct,0.660340384485035,5,S01,F,R,23,1
ChD_v5_MB,6,0,true,16,0,Wrong,1.3506491990441,7,S01,F,R,23,3
ChD_v5_MB,6,0,true,17,1,Correct,0.790402237508629,5,S01,F,R,23,1
ChD_v5_MB,6,0,true,18,0,Correct,1.60076397239682,5,S01,F,R,23,4
ChD_v5_MB,6,0,true,19,1,Correct,0.650335547790905,5,S01,F,R,23,1
ChD_v5_MB,6,0,true,20,1,Correct,0.630327922402817,6,S01,F,R,23,1
ChD_v5_MB,6,0,true,21,1,Correct,1.45069858998593,7,S01,F,R,23,1
ChD_v5_MB,6,0,true,22,0,Correct,0.580303056264993,7,S01,F,R,23,4
ChD_v5_MB,6,0,true,23,1,Wrong,1.78084454755773,6,S01,F,R,23,2
ChD_v5_MB,6,0,true,24,1,Correct,1.02050153480549,6,S01,F,R,23,1
ChD_v5_MB,6,0,true,25,0,Correct,0.900449638476903,7,S01,F,R,23,4
ChD_v5_MB,6,0,true,26,0,Correct,0.660345163152097,5,S01,F,R,23,4
ChD_v5_MB,6,0,true,27,0,Correct,0.620324451041679,5,S01,F,R,23,4
ChD_v5_MB,6,0,true,28,1,Correct,1.21059616266175,5,S01,F,R,23,1
ChD_v5_MB,6,0,true,29,1,Correct,0.660341067151303,6,S01,F,R,23,1
ChD_v5_MB,6,0,true,30,0,Correct,0.710365591955765,6,S01,F,R,23,4
ChD_v5_MB,6,0,true,31,0,Correct,1.37065989643289,7,S01,F,R,23,4
ChD_v5_MB,6,0,true,32,0,Correct,0.63032655706937,5,S01,F,R,23,4
ChD_v5_MB,6,0,true,33,0,Correct,0.640331393763499,6,S01,F,R,23,4
ChD_v5_MB,6,0,true,34,0,Wrong,1.47070314337331,7,S01,F,R,23,3
ChD_v5_MB,6,0,true,35,1,Wrong,0.690353529233521,7,S01,F,R,23,2
ChD_v5_MB,6,0,true,36,1,Correct,0.720368039316363,5,S01,F,R,23,1
ChD_v5_MB,6,0,true,37,0,Wrong,1.42068203190337,6,S01,F,R,23,3
ChD_v5_MB,6,0,true,38,0,Wrong,0.700358024594743,7,S01,F,R,23,3
ChD_v5_MB,6,0,true,39,0,Correct,0.580304080265532,6,S01,F,R,23,4
ChD_v5_MB,6,0,true,40,0,Correct,1.26060942346437,5,S01,F,R,23,4
ChD_v5_MB,6,0,true,41,0,Wrong,1.30070215691999,5,S01,F,R,23,3
ChD_v5_MB,6,0,true,42,1,Correct,1.10053818035835,7,S01,F,R,23,1
ChD_v5_MB,7,4,true,1,1,Correct,0.830415781617544,7,S01,F,R,23,1
ChD_v5_MB,7,4,true,2,0,Correct,1.36065471840495,7,S01,F,R,23,4
ChD_v5_MB,7,4,true,3,0,Correct,0.770390174786839,6,S01,F,R,23,4
ChD_v5_MB,7,4,true,4,0,Wrong,2.00095470949645,6,S01,F,R,23,3
ChD_v5_MB,7,4,true,5,1,Correct,0.730369804009783,5,S01,F,R,23,1
ChD_v5_MB,7,4,true,6,1,Correct,0.660341067151303,6,S01,F,R,23,1
ChD_v5_MB,7,4,true,7,1,Correct,1.170568965217,6,S01,F,R,23,1
ChD_v5_MB,7,4,true,8,0,Correct,0.810409521563356,5,S01,F,R,23,4
ChD_v5_MB,7,4,true,9,1,Wrong,1.23059662004833,5,S01,F,R,23,2
ChD_v5_MB,7,4,true,10,1,Correct,0.790398482841651,7,S01,F,R,23,1
ChD_v5_MB,7,4,true,11,0,Correct,1.08053089630408,5,S01,F,R,23,4
ChD_v5_MB,7,4,true,12,1,Correct,0.620322403041509,6,S01,F,R,23,1
ChD_v5_MB,7,4,true,13,0,Correct,1.77083902819687,6,S01,F,R,23,4
ChD_v5_MB,7,4,true,14,0,Correct,0.650334523790821,5,S01,F,R,23,4
ChD_v5_MB,7,4,true,15,0,Correct,1.64078127117316,5,S01,F,R,23,4
ChD_v5_MB,7,4,true,16,0,Correct,0.460249453269143,7,S01,F,R,23,4
ChD_v5_MB,7,4,true,17,0,Correct,0.600313412320429,7,S01,F,R,23,4
ChD_v5_MB,7,4,true,18,1,Wrong,0.670342490511816,6,S01,F,R,23,2
ChD_v5_MB,7,4,true,19,1,Correct,0.860442238368951,6,S01,F,R,23,1
ChD_v5_MB,7,4,true,20,0,Correct,1.42068203190292,5,S01,F,R,23,4
ChD_v5_MB,7,4,true,21,1,Correct,0.620321037708063,7,S01,F,R,23,1
ChD_v5_MB,7,4,true,22,1,Correct,0.770388809453393,6,S01,F,R,23,1
ChD_v5_MB,7,4,true,23,1,Wrong,0.690353187900614,6,S01,F,R,23,2
ChD_v5_MB,7,4,true,24,0,Correct,1.58075327500847,5,S01,F,R,23,4
ChD_v5_MB,7,4,true,25,1,Correct,0.630326215736009,6,S01,F,R,23,1
ChD_v5_MB,7,4,true,26,0,Wrong,0.490265328684977,7,S01,F,R,23,3
ChD_v5_MB,7,4,true,27,0,Wrong,0.550292642183399,5,S01,F,R,23,3
ChD_v5_MB,7,4,true,28,0,Wrong,1.21060435466288,6,S01,F,R,23,3
ChD_v5_MB,7,4,true,29,1,Correct,1.01049703944472,5,S01,F,R,23,1
ChD_v5_MB,7,4,true,30,0,Correct,1.10053852169171,7,S01,F,R,23,4
ChD_v5_MB,7,4,true,31,1,Correct,0.550289911516052,5,S01,F,R,23,1
ChD_v5_MB,7,4,true,32,0,Correct,1.39067025248742,7,S01,F,R,23,4
ChD_v5_MB,7,4,true,33,0,Correct,0.950471091280201,7,S01,F,R,23,4
ChD_v5_MB,7,4,true,34,1,Correct,0.500268458712753,5,S01,F,R,23,1
ChD_v5_MB,7,4,true,35,0,Correct,0.620322744374871,6,S01,F,R,23,4
ChD_v5_MB,7,4,true,36,1,Correct,0.660338677817772,7,S01,F,R,23,1
ChD_v5_MB,7,4,true,37,0,Correct,1.25062062943914,5,S01,F,R,23,4
ChD_v5_MB,7,4,true,38,1,Correct,0.640331052430138,7,S01,F,R,23,1
ChD_v5_MB,7,4,true,39,1,Correct,0.930462783225844,6,S01,F,R,23,1
ChD_v5_MB,7,4,true,40,1,Correct,1.64077922317299,7,S01,F,R,23,1
ChD_v5_MB,7,4,true,41,0,Wrong,0.550290252849413,7,S01,F,R,23,3
ChD_v5_MB,7,4,true,42,1,Correct,0.560294748210181,5,S01,F,R,23,1
ChD_v5_MB,8,4,false,1,0,Correct,0.650335547790451,7,S01,F,R,23,4
ChD_v5_MB,8,4,false,2,0,Correct,0.590310282292653,6,S01,F,R,23,4
ChD_v5_MB,8,4,false,3,1,Correct,0.970482812669538,7,S01,F,R,23,1
ChD_v5_MB,8,4,false,4,1,Correct,1.25060731743713,7,S01,F,R,23,1
ChD_v5_MB,8,4,false,5,1,Wrong,1.10053852169171,5,S01,F,R,23,2
ChD_v5_MB,8,4,false,6,0,Correct,1.04051769352807,6,S01,F,R,23,4
ChD_v5_MB,8,4,false,7,1,Wrong,1.33063952565584,7,S01,F,R,23,2
ChD_v5_MB,8,4,false,8,0,Correct,0.670342831845178,7,S01,F,R,23,4
ChD_v5_MB,8,4,false,9,0,Correct,0.75037913606468,6,S01,F,R,23,4
ChD_v5_MB,8,4,false,10,1,Correct,0.580304080265532,5,S01,F,R,23,1
ChD_v5_MB,8,4,false,11,1,Correct,0.600313070986613,6,S01,F,R,23,1
ChD_v5_MB,8,4,false,12,1,Wrong,0.970485202003069,5,S01,F,R,23,2
ChD_v5_MB,8,4,false,13,0,Wrong,0.870439224395309,5,S01,F,R,23,3
ChD_v5_MB,8,4,false,14,1,Correct,0.550291959516676,5,S01,F,R,23,1
ChD_v5_MB,8,4,false,15,1,Correct,0.670344538511986,7,S01,F,R,23,1
ChD_v5_MB,8,4,false,16,0,Correct,0.790401554841906,6,S01,F,R,23,4
ChD_v5_MB,8,4,false,17,0,Wrong,1.940917838663,6,S01,F,R,23,3
ChD_v5_MB,8,4,false,18,0,Correct,0.610318931681281,7,S01,F,R,23,4
ChD_v5_MB,8,4,false,19,1,Correct,0.480259126657857,5,S01,F,R,23,1
ChD_v5_MB,8,4,false,20,0,Correct,0.950470067280116,6,S01,F,R,23,4
ChD_v5_MB,8,4,false,21,0,Correct,0.67034453851244,6,S01,F,R,23,4
ChD_v5_MB,8,4,false,22,0,Correct,1.23059696138215,7,S01,F,R,23,4
ChD_v5_MB,8,4,false,23,0,Correct,0.630327239735639,5,S01,F,R,23,4
ChD_v5_MB,8,4,false,24,0,Correct,0.710362519955511,5,S01,F,R,23,4
ChD_v5_MB,8,4,false,25,1,Correct,0.410226635132399,5,S01,F,R,23,1
ChD_v5_MB,8,4,false,26,1,Wrong,0.640347436432403,7,S01,F,R,23,2
ChD_v5_MB,8,4,false,27,1,Wrong,1.43068857526431,7,S01,F,R,23,2
ChD_v5_MB,8,4,false,28,1,Correct,0.460251842603129,5,S01,F,R,23,1
ChD_v5_MB,8,4,false,29,1,Correct,0.610317907680742,5,S01,F,R,23,1
ChD_v5_MB,8,4,false,30,0,Correct,0.660345845819274,5,S01,F,R,23,4
ChD_v5_MB,8,4,false,31,1,Correct,0.690352505233436,6,S01,F,R,23,1
ChD_v5_MB,8,4,false,32,1,Correct,0.650334865123727,5,S01,F,R,23,1
ChD_v5_MB,8,4,false,33,1,Correct,0.710363885288502,5,S01,F,R,23,1
ChD_v5_MB,8,4,false,34,0,Correct,0.680348009872669,7,S01,F,R,23,4
ChD_v5_MB,8,4,false,35,0,Correct,1.15056133982891,6,S01,F,R,23,4
ChD_v5_MB,8,4,false,36,0,Correct,0.640330711096776,6,S01,F,R,23,4
ChD_v5_MB,8,4,false,37,1,Correct,1.43068516193024,6,S01,F,R,23,1
ChD_v5_MB,8,4,false,38,0,Correct,0.810469254906634,6,S01,F,R,23,4
ChD_v5_MB,8,4,false,39,1,Correct,0.64033378309703,7,S01,F,R,23,1
ChD_v5_MB,8,4,false,40,0,Correct,0.600316142987322,6,S01,F,R,23,4
ChD_v5_MB,8,4,false,41,0,Correct,0.800401612868518,7,S01,F,R,23,4
ChD_v5_MB,8,4,false,42,1,Correct,1.00049459208412,7,S01,F,R,23,1
ChD_v5_MB,9,4,false,1,0,Correct,0.590309940959746,6,S01,F,R,23,4
ChD_v5_MB,9,4,false,2,1,Wrong,0.770390857453563,7,S01,F,R,23,2
ChD_v5_MB,9,4,false,3,0,Correct,1.06051985758192,5,S01,F,R,23,4
ChD_v5_MB,9,4,false,4,1,Correct,0.560295430877359,6,S01,F,R,23,1
ChD_v5_MB,9,4,false,5,1,Correct,1.34064572768387,7,S01,F,R,23,1
ChD_v5_MB,9,4,false,6,1,Correct,0.550289911516052,5,S01,F,R,23,1
ChD_v5_MB,9,4,false,7,1,Correct,1.27061528415858,7,S01,F,R,23,1
ChD_v5_MB,9,4,false,8,0,Correct,1.15055963316256,5,S01,F,R,23,4
ChD_v5_MB,9,4,false,9,1,Wrong,0.610316542347296,6,S01,F,R,23,2
ChD_v5_MB,9,4,false,10,1,Correct,0.650335206457089,6,S01,F,R,23,1
ChD_v5_MB,9,4,false,11,1,Wrong,1.25060526943696,7,S01,F,R,23,2
ChD_v5_MB,9,4,false,12,0,Correct,0.570301291571573,5,S01,F,R,23,4
ChD_v5_MB,9,4,false,13,0,Correct,0.710361495954971,7,S01,F,R,23,4
ChD_v5_MB,9,4,false,14,1,Correct,0.770389150786755,6,S01,F,R,23,1
ChD_v5_MB,9,4,false,15,0,Correct,0.910453451170947,5,S01,F,R,23,4
ChD_v5_MB,9,4,false,16,1,Correct,1.02050085213922,6,S01,F,R,23,1
ChD_v5_MB,9,4,false,17,1,Correct,0.740466118053,5,S01,F,R,23,1
ChD_v5_MB,9,4,false,18,0,Correct,0.680349716539931,7,S01,F,R,23,4
ChD_v5_MB,9,4,false,19,1,Correct,0.500271189379646,6,S01,F,R,23,1
ChD_v5_MB,9,4,false,20,0,Correct,1.26061932213276,5,S01,F,R,23,4
ChD_v5_MB,9,4,false,21,0,Correct,1.13055064244057,5,S01,F,R,23,4
ChD_v5_MB,9,4,false,22,0,Correct,1.4306855032636,6,S01,F,R,23,4
ChD_v5_MB,9,4,false,23,0,Correct,1.10055456436153,6,S01,F,R,23,4
ChD_v5_MB,9,4,false,24,0,Wrong,0.750380842731488,7,S01,F,R,23,3
ChD_v5_MB,9,4,false,25,1,Wrong,1.20058245129931,7,S01,F,R,23,2
ChD_v5_MB,9,4,false,26,1,Wrong,0.790401896175267,5,S01,F,R,23,2
ChD_v5_MB,9,4,false,27,1,Correct,1.34064845835076,5,S01,F,R,23,1
ChD_v5_MB,9,4,false,28,1,Correct,0.840433247647416,6,S01,F,R,23,1
ChD_v5_MB,9,4,false,29,1,Correct,0.860429609033208,5,S01,F,R,23,1
ChD_v5_MB,9,4,false,30,0,Correct,0.900459195811481,6,S01,F,R,23,4
ChD_v5_MB,9,4,false,31,1,Correct,0.810407473562732,7,S01,F,R,23,1
ChD_v5_MB,9,4,false,32,0,Correct,1.38066473312657,5,S01,F,R,23,4
ChD_v5_MB,9,4,false,33,1,Correct,0.600313070987067,6,S01,F,R,23,1
ChD_v5_MB,9,4,false,34,1,Wrong,0.780393304813706,5,S01,F,R,23,2
ChD_v5_MB,9,4,false,35,0,Correct,0.990487366056918,6,S01,F,R,23,4
ChD_v5_MB,9,4,false,36,0,Correct,0.850425113672441,5,S01,F,R,23,4
ChD_v5_MB,9,4,false,37,0,Wrong,0.630327239736093,7,S01,F,R,23,3
ChD_v5_MB,9,4,false,38,0,Correct,1.00049390941786,7,S01,F,R,23,4
ChD_v5_MB,9,4,false,39,0,Correct,0.510273636740244,7,S01,F,R,23,4
ChD_v5_MB,9,4,false,40,0,Correct,0.530282968795141,7,S01,F,R,23,4
ChD_v5_MB,9,4,false,41,0,Correct,1.12054785374661,6,S01,F,R,23,4
ChD_v5_MB,9,4,false,42,1,Correct,0.720367015316278,7,S01,F,R,23,1
ChD_v5_MB,10,7,true,1,1,Correct,0.650342715791953,6,S01,F,R,23,1
ChD_v5_MB,10,7,true,2,0,Correct,0.820414016923669,5,S01,F,R,23,4
ChD_v5_MB,10,7,true,3,0,Wrong,0.890443095115511,7,S01,F,R,23,3
ChD_v5_MB,10,7,true,4,1,Correct,1.60076158306329,5,S01,F,R,23,1
ChD_v5_MB,10,7,true,5,1,Wrong,0.600315460320598,5,S01,F,R,23,2
ChD_v5_MB,10,7,true,6,0,Correct,0.810416006897681,7,S01,F,R,23,4
ChD_v5_MB,10,7,true,7,0,Wrong,0.850424772339079,5,S01,F,R,23,3
ChD_v5_MB,10,7,true,8,1,Correct,0.54028678148873,5,S01,F,R,23,1
ChD_v5_MB,10,7,true,9,1,Correct,0.600314094986697,6,S01,F,R,23,1
ChD_v5_MB,10,7,true,10,0,Correct,0.650335206457089,5,S01,F,R,23,4
ChD_v5_MB,10,7,true,11,1,Correct,1.12054717107989,6,S01,F,R,23,1
ChD_v5_MB,10,7,true,12,0,Correct,0.930462100558666,7,S01,F,R,23,4
ChD_v5_MB,10,7,true,13,0,Wrong,0.980489356030021,6,S01,F,R,23,3
ChD_v5_MB,10,7,true,14,1,Correct,1.22059246602093,7,S01,F,R,23,1
ChD_v5_MB,10,7,true,15,0,Correct,0.760392164760397,7,S01,F,R,23,4
ChD_v5_MB,10,7,true,16,1,Correct,0.410226976465306,5,S01,F,R,23,1
ChD_v5_MB,10,7,true,17,1,Wrong,0.870433763060614,6,S01,F,R,23,2
ChD_v5_MB,10,7,true,18,0,Correct,0.720370428649894,7,S01,F,R,23,4
ChD_v5_MB,10,7,true,19,0,Correct,0.560307036212107,7,S01,F,R,23,4
ChD_v5_MB,10,7,true,20,1,Correct,0.650335889124267,7,S01,F,R,23,1
ChD_v5_MB,10,7,true,21,0,Correct,0.850425796339164,6,S01,F,R,23,4
ChD_v5_MB,10,7,true,22,1,Correct,1.21058626399335,6,S01,F,R,23,1
ChD_v5_MB,10,7,true,23,1,Correct,0.83041817095153,6,S01,F,R,23,1
ChD_v5_MB,10,7,true,24,1,Correct,0.960475245308062,5,S01,F,R,23,1
ChD_v5_MB,10,7,true,25,0,Wrong,0.750391082733699,6,S01,F,R,23,3
ChD_v5_MB,10,7,true,26,0,Correct,0.970478716668745,5,S01,F,R,23,4
ChD_v5_MB,10,7,true,27,1,Wrong,0.560294406876819,5,S01,F,R,23,2
ChD_v5_MB,10,7,true,28,0,Wrong,1.28062046218607,6,S01,F,R,23,3
ChD_v5_MB,10,7,true,29,0,Correct,0.620322061708603,7,S01,F,R,23,4
ChD_v5_MB,10,7,true,30,0,Wrong,0.710366957289211,7,S01,F,R,23,3
ChD_v5_MB,10,7,true,31,0,Correct,0.650344422458761,7,S01,F,R,23,4
ChD_v5_MB,10,7,true,32,0,Correct,0.690363427901916,5,S01,F,R,23,4
ChD_v5_MB,10,7,true,33,1,Correct,0.560294065543458,6,S01,F,R,23,1
ChD_v5_MB,10,7,true,34,1,Correct,0.880439282421921,5,S01,F,R,23,1
ChD_v5_MB,10,7,true,35,1,Correct,0.550291959516221,6,S01,F,R,23,1
ChD_v5_MB,10,7,true,36,0,Wrong,0.550292642183399,7,S01,F,R,23,3
ChD_v5_MB,10,7,true,37,1,Correct,0.660340384485035,6,S01,F,R,23,1
ChD_v5_MB,10,7,true,38,1,Correct,0.500270848046284,6,S01,F,R,23,1
ChD_v5_MB,10,7,true,39,0,Correct,0.670346245178794,7,S01,F,R,23,4
ChD_v5_MB,10,7,true,40,1,Correct,0.710360130621525,5,S01,F,R,23,1
ChD_v5_MB,10,7,true,41,0,Correct,0.620322403041509,7,S01,F,R,23,4
ChD_v5_MB,10,7,true,42,1,Correct,0.620320696375156,5,S01,F,R,23,1
ChD_v5_MB,11,0,true,1,0,Wrong,0.850424431005717,7,S01,F,R,23,3
ChD_v5_MB,11,0,true,2,1,Wrong,0.900448955809725,7,S01,F,R,23,2
ChD_v5_MB,11,0,true,3,0,Correct,1.28062182751997,6,S01,F,R,23,4
ChD_v5_MB,11,0,true,4,1,Correct,0.490263963351531,5,S01,F,R,23,1
ChD_v5_MB,11,0,true,5,1,Correct,0.620322403041509,6,S01,F,R,23,1
ChD_v5_MB,11,0,true,6,0,Correct,0.510278756741122,7,S01,F,R,23,4
ChD_v5_MB,11,0,true,7,1,Correct,0.810407473562732,7,S01,F,R,23,1
ChD_v5_MB,11,0,true,8,0,Correct,0.660341067151303,7,S01,F,R,23,4
ChD_v5_MB,11,0,true,9,0,Correct,0.98049038003056,5,S01,F,R,23,4
ChD_v5_MB,11,0,true,10,0,Correct,0.600312729653251,5,S01,F,R,23,4
ChD_v5_MB,11,0,true,11,1,Correct,0.800407415535665,6,S01,F,R,23,1
ChD_v5_MB,11,0,true,12,0,Correct,0.510272271406343,7,S01,F,R,23,4
ChD_v5_MB,11,0,true,13,1,Correct,0.55028957018269,6,S01,F,R,23,1
ChD_v5_MB,11,0,true,14,0,Wrong,1.10054091102525,5,S01,F,R,23,3
ChD_v5_MB,11,0,true,15,0,Correct,0.460250135936776,5,S01,F,R,23,4
ChD_v5_MB,11,0,true,16,0,Correct,1.09053368499759,6,S01,F,R,23,4
ChD_v5_MB,11,0,true,17,0,Correct,1.62078286178675,5,S01,F,R,23,4
ChD_v5_MB,11,0,true,18,0,Correct,0.500268458712299,6,S01,F,R,23,4
ChD_v5_MB,11,0,true,19,0,Wrong,0.770400414788141,5,S01,F,R,23,3
ChD_v5_MB,11,0,true,20,1,Wrong,0.980483553362419,6,S01,F,R,23,2
ChD_v5_MB,11,0,true,21,1,Wrong,1.10053749769163,7,S01,F,R,23,2
ChD_v5_MB,11,0,true,22,0,Correct,0.610316883680657,6,S01,F,R,23,4
ChD_v5_MB,11,0,true,23,1,Correct,0.560296454876989,6,S01,F,R,23,1
ChD_v5_MB,11,0,true,24,1,Wrong,1.00049322675068,7,S01,F,R,23,2
ChD_v5_MB,11,0,true,25,1,Correct,0.640331393763954,7,S01,F,R,23,1
ChD_v5_MB,11,0,true,26,1,Correct,0.700356659260842,5,S01,F,R,23,1
ChD_v5_MB,11,0,true,27,1,Correct,1.31063121760103,5,S01,F,R,23,1
ChD_v5_MB,11,0,true,28,0,Correct,0.650335206457998,6,S01,F,R,23,4
ChD_v5_MB,11,0,true,29,0,Correct,1.11054335838584,5,S01,F,R,23,4
ChD_v5_MB,11,0,true,30,0,Correct,0.580312613600026,7,S01,F,R,23,4
ChD_v5_MB,11,0,true,31,1,Correct,0.510275684740868,6,S01,F,R,23,1
ChD_v5_MB,11,0,true,32,0,Wrong,0.640340609765626,7,S01,F,R,23,3
ChD_v5_MB,11,0,true,33,0,Correct,1.34064572768341,5,S01,F,R,23,4
ChD_v5_MB,11,0,true,34,1,Correct,0.640331393763045,5,S01,F,R,23,1
ChD_v5_MB,11,0,true,35,1,Wrong,0.74046816605317,7,S01,F,R,23,2
ChD_v5_MB,11,0,true,36,0,Correct,1.16056378718951,6,S01,F,R,23,4
ChD_v5_MB,11,0,true,37,1,Correct,0.750390741399883,5,S01,F,R,23,1
ChD_v5_MB,11,0,true,38,1,Wrong,1.35066455904628,5,S01,F,R,23,2
ChD_v5_MB,11,0,true,39,1,Correct,1.04051291486056,6,S01,F,R,23,1
ChD_v5_MB,11,0,true,40,1,Correct,0.630326215735554,6,S01,F,R,23,1
ChD_v5_MB,11,0,true,41,0,Wrong,0.790401896174812,7,S01,F,R,23,3
ChD_v5_MB,11,0,true,42,1,Correct,0.550289228849329,7,S01,F,R,23,1
ChD_v5_MB,12,7,false,1,0,Correct,0.990488048724096,6,S01,F,R,23,4
ChD_v5_MB,12,7,false,2,1,Wrong,0.830424314952493,6,S01,F,R,23,2
ChD_v5_MB,12,7,false,3,0,Wrong,0.73037355867767,6,S01,F,R,23,3
ChD_v5_MB,12,7,false,4,1,Wrong,0.820412310256861,5,S01,F,R,23,2
ChD_v5_MB,12,7,false,5,1,Correct,0.450245640576009,7,S01,F,R,23,1
ChD_v5_MB,12,7,false,6,1,Correct,1.46070035468026,7,S01,F,R,23,1
ChD_v5_MB,12,7,false,7,1,Correct,1.05051433822107,5,S01,F,R,23,1
ChD_v5_MB,12,7,false,8,1,Correct,2.12100216849134,7,S01,F,R,23,1
ChD_v5_MB,12,7,false,9,0,Correct,0.81040713222937,6,S01,F,R,23,4
ChD_v5_MB,12,7,false,10,0,Correct,0.840420276978311,7,S01,F,R,23,4
ChD_v5_MB,12,7,false,11,1,Wrong,0.920456581197814,7,S01,F,R,23,2
ChD_v5_MB,12,7,false,12,0,Correct,0.990488048723187,5,S01,F,R,23,4
ChD_v5_MB,12,7,false,13,1,Wrong,0.770389492119662,6,S01,F,R,23,2
ChD_v5_MB,12,7,false,14,0,Wrong,0.840420618311673,5,S01,F,R,23,3
ChD_v5_MB,12,7,false,15,0,Correct,0.630325191735469,5,S01,F,R,23,4
ChD_v5_MB,12,7,false,16,0,Correct,0.670346927845517,5,S01,F,R,23,4
ChD_v5_MB,12,7,false,17,1,Correct,0.690354553234515,5,S01,F,R,23,1
ChD_v5_MB,12,7,false,18,0,Correct,1.79084733625214,6,S01,F,R,23,4
ChD_v5_MB,12,7,false,19,1,Correct,0.780394328813791,6,S01,F,R,23,1
ChD_v5_MB,12,7,false,20,0,Correct,0.780393304813706,7,S01,F,R,23,4
ChD_v5_MB,12,7,false,21,0,Correct,1.15055963316211,7,S01,F,R,23,4
ChD_v5_MB,12,7,false,22,0,Correct,1.07052435294269,6,S01,F,R,23,4
ChD_v5_MB,12,7,false,23,0,Correct,0.610323027682075,5,S01,F,R,23,4
ChD_v5_MB,12,7,false,24,0,Correct,0.810406449562647,5,S01,F,R,23,4
ChD_v5_MB,12,7,false,25,0,Wrong,0.440239779880885,6,S01,F,R,23,3
ChD_v5_MB,12,7,false,26,1,Correct,0.850431257673858,7,S01,F,R,23,1
ChD_v5_MB,12,7,false,27,0,Correct,1.32064151562985,7,S01,F,R,23,4
ChD_v5_MB,12,7,false,28,1,Wrong,1.46069933067926,5,S01,F,R,23,2
ChD_v5_MB,12,7,false,29,1,Correct,0.580304080265078,5,S01,F,R,23,1
ChD_v5_MB,12,7,false,30,0,Correct,1.9509202860236,7,S01,F,R,23,4
ChD_v5_MB,12,7,false,31,1,Correct,0.570300267571033,7,S01,F,R,23,1
ChD_v5_MB,12,7,false,32,0,Wrong,0.460252183936946,7,S01,F,R,23,3
ChD_v5_MB,12,7,false,33,1,Correct,0.570299584905219,6,S01,F,R,23,1
ChD_v5_MB,12,7,false,34,1,Wrong,1.08053977097194,6,S01,F,R,23,2
ChD_v5_MB,12,7,false,35,1,Correct,1.03050671283298,6,S01,F,R,23,1
ChD_v5_MB,12,7,false,36,0,Correct,0.900448273143002,5,S01,F,R,23,4
ChD_v5_MB,12,7,false,37,0,Correct,0.870434445727337,5,S01,F,R,23,4
ChD_v5_MB,12,7,false,38,1,Correct,0.460249111935782,6,S01,F,R,23,1
ChD_v5_MB,12,7,false,39,1,Correct,0.680347327205945,7,S01,F,R,23,1
ChD_v5_MB,12,7,false,40,1,Wrong,0.990487707389825,5,S01,F,R,23,2
ChD_v5_MB,12,7,false,41,0,Correct,0.790402920175807,7,S01,F,R,23,4
ChD_v5_MB,12,7,false,42,1,Wrong,0.830416122950905,6,S01,F,R,23,2
ChD_v5_MB,13,7,true,1,0,Correct,0.74037634737072,5,S01,F,R,23,4
ChD_v5_MB,13,7,true,2,0,Correct,1.02050358280657,6,S01,F,R,23,4
ChD_v5_MB,13,7,true,3,1,Correct,0.670349658513319,7,S01,F,R,23,1
ChD_v5_MB,13,7,true,4,1,Correct,0.760384314092171,5,S01,F,R,23,1
ChD_v5_MB,13,7,true,5,1,Correct,0.490263622018169,7,S01,F,R,23,1
ChD_v5_MB,13,7,true,6,0,Wrong,1.440689657291,7,S01,F,R,23,3
ChD_v5_MB,13,7,true,7,0,Wrong,0.730371510677501,5,S01,F,R,23,3
ChD_v5_MB,13,7,true,8,0,Wrong,1.52073517751218,6,S01,F,R,23,3
ChD_v5_MB,13,7,true,9,1,Correct,0.910452427170408,6,S01,F,R,23,1
ChD_v5_MB,13,7,true,10,0,Correct,0.820416406258109,5,S01,F,R,23,4
ChD_v5_MB,13,7,true,11,1,Correct,0.720367015316733,6,S01,F,R,23,1
ChD_v5_MB,13,7,true,12,1,Wrong,2.00094276282744,6,S01,F,R,23,2
ChD_v5_MB,13,7,true,13,1,Correct,1.23060310538311,5,S01,F,R,23,1
ChD_v5_MB,13,7,true,14,1,Wrong,1.97092927674513,5,S01,F,R,23,2
ChD_v5_MB,13,7,true,15,1,Wrong,1.05051877555568,7,S01,F,R,23,2
ChD_v5_MB,13,7,true,16,1,Correct,0.650373777130585,6,S01,F,R,23,1
ChD_v5_MB,13,7,true,17,1,Wrong,1.23059627871497,6,S01,F,R,23,2
ChD_v5_MB,13,7,true,18,0,Correct,0.590320180961048,7,S01,F,R,23,4
ChD_v5_MB,13,7,true,19,0,Correct,0.640332076429768,7,S01,F,R,23,4
ChD_v5_MB,13,7,true,20,1,Correct,0.46025081860259,5,S01,F,R,23,1
ChD_v5_MB,13,7,true,21,1,Correct,1.14055479646798,5,S01,F,R,23,1
ChD_v5_MB,13,7,true,22,0,Correct,1.0705233289426,5,S01,F,R,23,4
ChD_v5_MB,13,7,true,23,1,Correct,0.790401896174812,6,S01,F,R,23,1
ChD_v5_MB,13,7,true,24,0,Correct,2.00094173882735,5,S01,F,R,23,4
ChD_v5_MB,13,7,true,25,1,Correct,1.11054096905231,6,S01,F,R,23,1
ChD_v5_MB,13,7,true,26,0,Correct,0.61031961434755,7,S01,F,R,23,4
ChD_v5_MB,13,7,true,27,0,Correct,1.00049186141723,7,S01,F,R,23,4
ChD_v5_MB,13,7,true,28,1,Correct,0.670343514511901,5,S01,F,R,23,1
ChD_v5_MB,13,7,true,29,1,Correct,1.33064054965683,5,S01,F,R,23,1
ChD_v5_MB,13,7,true,30,0,Correct,0.870434445727337,6,S01,F,R,23,4
ChD_v5_MB,13,7,true,31,0,Correct,0.460252183936946,6,S01,F,R,23,4
ChD_v5_MB,13,7,true,32,0,Correct,1.22059383135528,6,S01,F,R,23,4
ChD_v5_MB,13,7,true,33,1,Wrong,1.54073597623213,7,S01,F,R,23,2
ChD_v5_MB,13,7,true,34,0,Correct,1.45070200332,6,S01,F,R,23,4
ChD_v5_MB,13,7,true,35,0,Correct,0.74037634737072,7,S01,F,R,23,4
ChD_v5_MB,13,7,true,36,0,Correct,1.14055445513462,7,S01,F,R,23,4
ChD_v5_MB,13,7,true,37,0,Correct,0.680349375206115,7,S01,F,R,23,4
ChD_v5_MB,13,7,true,38,0,Correct,0.470371015380047,5,S01,F,R,23,4
ChD_v5_MB,13,7,true,39,1,Correct,0.380214514383088,7,S01,F,R,23,1
ChD_v5_MB,13,7,true,40,1,Correct,0.830416122950905,7,S01,F,R,23,1
ChD_v5_MB,13,7,true,41,1,Wrong,0.850424772339079,5,S01,F,R,23,2
ChD_v5_MB,13,7,true,42,0,Correct,1.25061687477262,6,S01,F,R,23,4
ChD_v5_MB,14,7,true,1,1,Correct,0.610318249015013,5,S01,F,R,23,1
ChD_v5_MB,14,7,true,2,0,Wrong,0.420230447825988,6,S01,F,R,23,3
ChD_v5_MB,14,7,true,3,0,Wrong,0.500268117378937,5,S01,F,R,23,3
ChD_v5_MB,14,7,true,4,0,Correct,0.550290252849413,6,S01,F,R,23,4
ChD_v5_MB,14,7,true,5,1,Wrong,0.580304421599349,7,S01,F,R,23,2
ChD_v5_MB,14,7,true,6,0,Correct,0.690353187900159,5,S01,F,R,23,4
ChD_v5_MB,14,7,true,7,0,Correct,0.600321604321562,6,S01,F,R,23,4
ChD_v5_MB,14,7,true,8,0,Correct,0.580303397598354,5,S01,F,R,23,4
ChD_v5_MB,14,7,true,9,0,Correct,0.740384880705669,5,S01,F,R,23,4
ChD_v5_MB,14,7,true,10,0,Correct,0.580304421598439,5,S01,F,R,23,4
ChD_v5_MB,14,7,true,11,1,Correct,1.17056828255028,5,S01,F,R,23,1
ChD_v5_MB,14,7,true,12,1,Correct,0.710361837288333,6,S01,F,R,23,1
ChD_v5_MB,14,7,true,13,1,Correct,0.660340043152128,7,S01,F,R,23,1
ChD_v5_MB,14,7,true,14,0,Correct,0.760384655425532,6,S01,F,R,23,4
ChD_v5_MB,14,7,true,15,1,Correct,0.660339360484495,7,S01,F,R,23,1
ChD_v5_MB,14,7,true,16,1,Correct,0.820411627590138,6,S01,F,R,23,1
ChD_v5_MB,14,7,true,17,0,Wrong,0.480262539991927,7,S01,F,R,23,3
ChD_v5_MB,14,7,true,18,0,Correct,0.420231471826073,5,S01,F,R,23,4
ChD_v5_MB,14,7,true,19,1,Correct,0.550290252849413,7,S01,F,R,23,1
ChD_v5_MB,14,7,true,20,1,Correct,1.67079407458874,5,S01,F,R,23,1
ChD_v5_MB,14,7,true,21,1,Correct,0.6403327590974,5,S01,F,R,23,1
ChD_v5_MB,14,7,true,22,0,Correct,0.820412651591132,6,S01,F,R,23,4
ChD_v5_MB,14,7,true,23,0,Correct,2.27106413756816,5,S01,F,R,23,4
ChD_v5_MB,14,7,true,24,0,Wrong,1.14056162313521,7,S01,F,R,23,3
ChD_v5_MB,14,7,true,25,1,Wrong,0.950471091280201,7,S01,F,R,23,2
ChD_v5_MB,14,7,true,26,0,Correct,1.3706585310999,7,S01,F,R,23,4
ChD_v5_MB,14,7,true,27,1,Correct,0.640329345762875,7,S01,F,R,23,1
ChD_v5_MB,14,7,true,28,1,Wrong,1.70081233933811,6,S01,F,R,23,2
ChD_v5_MB,14,7,true,29,0,Correct,1.06051985758192,7,S01,F,R,23,4
ChD_v5_MB,14,7,true,30,1,Correct,0.550295714184108,6,S01,F,R,23,1
ChD_v5_MB,14,7,true,31,1,Correct,0.900447590476278,5,S01,F,R,23,1
ChD_v5_MB,14,7,true,32,0,Wrong,0.660339360484495,6,S01,F,R,23,3
ChD_v5_MB,14,7,true,33,1,Wrong,0.710361495954971,7,S01,F,R,23,2
ChD_v5_MB,14,7,true,34,0,Wrong,0.940464547919264,5,S01,F,R,23,3
ChD_v5_MB,14,7,true,35,0,Correct,1.4606989893459,6,S01,F,R,23,4
ChD_v5_MB,14,7,true,36,1,Correct,0.550294348849752,6,S01,F,R,23,1
ChD_v5_MB,14,7,true,37,1,Wrong,1.71081171469845,7,S01,F,R,23,2
ChD_v5_MB,14,7,true,38,1,Correct,1.08052782430337,5,S01,F,R,23,1
ChD_v5_MB,14,7,true,39,0,Correct,0.810406108229285,7,S01,F,R,23,4
ChD_v5_MB,14,7,true,40,0,Correct,0.560293382876734,7,S01,F,R,23,4
ChD_v5_MB,14,7,true,41,1,Correct,0.550292983517215,6,S01,F,R,23,1
ChD_v5_MB,14,7,true,42,1,Wrong,0.700357683260927,6,S01,F,R,23,2
ChD_v5_MB,15,4,true,1,1,Correct,0.570301632905389,5,S01,F,R,23,1
ChD_v5_MB,15,4,true,2,0,Correct,0.620320696375611,6,S01,F,R,23,4
ChD_v5_MB,15,4,true,3,0,Correct,0.73037116934323,6,S01,F,R,23,4
ChD_v5_MB,15,4,true,4,1,Wrong,0.750379818731403,5,S01,F,R,23,2
ChD_v5_MB,15,4,true,5,0,Correct,1.05051433822107,7,S01,F,R,23,4
ChD_v5_MB,15,4,true,6,0,Correct,0.55028957018269,5,S01,F,R,23,4
ChD_v5_MB,15,4,true,7,0,Correct,0.670344879845347,6,S01,F,R,23,4
ChD_v5_MB,15,4,true,8,0,Correct,0.740376006037359,7,S01,F,R,23,4
ChD_v5_MB,15,4,true,9,0,Correct,0.480261515990933,5,S01,F,R,23,4
ChD_v5_MB,15,4,true,10,1,Correct,0.550290252849413,6,S01,F,R,23,1
ChD_v5_MB,15,4,true,11,1,Correct,1.12054512307972,5,S01,F,R,23,1
ChD_v5_MB,15,4,true,12,1,Correct,0.680444428602877,6,S01,F,R,23,1
ChD_v5_MB,15,4,true,13,1,Correct,0.600314094986697,6,S01,F,R,23,1
ChD_v5_MB,15,4,true,14,1,Wrong,1.11054165171904,7,S01,F,R,23,2
ChD_v5_MB,15,4,true,15,1,Correct,0.60031238831989,5,S01,F,R,23,1
ChD_v5_MB,15,4,true,16,0,Correct,0.700359048595283,6,S01,F,R,23,4
ChD_v5_MB,15,4,true,17,0,Correct,1.54074928823505,5,S01,F,R,23,4
ChD_v5_MB,15,4,true,18,0,Correct,0.620322061708148,5,S01,F,R,23,4
ChD_v5_MB,15,4,true,19,1,Correct,0.440373286638151,7,S01,F,R,23,1
ChD_v5_MB,15,4,true,20,1,Correct,0.740376006037359,5,S01,F,R,23,1
ChD_v5_MB,15,4,true,21,0,Wrong,1.63078189581373,6,S01,F,R,23,3
ChD_v5_MB,15,4,true,22,1,Correct,0.850425796339164,5,S01,F,R,23,1
ChD_v5_MB,15,4,true,23,0,Wrong,0.560294406877729,5,S01,F,R,23,3
ChD_v5_MB,15,4,true,24,0,Correct,0.580302714931631,6,S01,F,R,23,4
ChD_v5_MB,15,4,true,25,0,Correct,0.79041247751084,7,S01,F,R,23,4
ChD_v5_MB,15,4,true,26,1,Correct,1.10053647369155,5,S01,F,R,23,1
ChD_v5_MB,15,4,true,27,0,Correct,0.750380842731488,5,S01,F,R,23,4
ChD_v5_MB,15,4,true,28,1,Correct,1.04051393886064,6,S01,F,R,23,1
ChD_v5_MB,15,4,true,29,0,Correct,1.27061289482459,7,S01,F,R,23,4
ChD_v5_MB,15,4,true,30,1,Correct,1.53073011553791,6,S01,F,R,23,1
ChD_v5_MB,15,4,true,31,1,Correct,0.540287464155454,6,S01,F,R,23,1
ChD_v5_MB,15,4,true,32,0,Correct,0.830415781617544,7,S01,F,R,23,4
ChD_v5_MB,15,4,true,33,1,Correct,0.780393304814615,6,S01,F,R,23,1
ChD_v5_MB,15,4,true,34,1,Wrong,1.84087049572179,7,S01,F,R,23,2
ChD_v5_MB,15,4,true,35,1,Correct,0.610318249015013,7,S01,F,R,23,1
ChD_v5_MB,15,4,true,36,0,Correct,0.930460052558497,7,S01,F,R,23,4
ChD_v5_MB,15,4,true,37,1,Correct,1.26060908213055,7,S01,F,R,23,1
ChD_v5_MB,15,4,true,38,0,Correct,1.39066683915381,6,S01,F,R,23,4
ChD_v5_MB,15,4,true,39,1,Wrong,1.440689657291,7,S01,F,R,23,2
ChD_v5_MB,15,4,true,40,0,Correct,1.30064003424227,7,S01,F,R,23,4
ChD_v5_MB,15,4,true,41,0,Wrong,1.29063451488142,5,S01,F,R,23,3
ChD_v5_MB,15,4,true,42,1,Wrong,0.850426479006796,7,S01,F,R,23,2
ChD_v5_MB,1,4,false,1,1,Wrong,0.749720874617196,6,S02,F,L,21,2
ChD_v5_MB,1,4,false,2,0,Correct,1.26948977825727,7,S02,F,L,21,4
ChD_v5_MB,1,4,false,3,0,Correct,0.829681225330714,6,S02,F,L,21,4
ChD_v5_MB,1,4,false,4,0,Correct,0.889661216366658,6,S02,F,L,21,4
ChD_v5_MB,1,4,false,5,0,Correct,0.649777433559211,5,S02,F,L,21,4
ChD_v5_MB,1,4,false,6,0,Correct,0.749728725284513,5,S02,F,L,21,4
ChD_v5_MB,1,4,false,7,0,Correct,0.819686266824865,7,S02,F,L,21,4
ChD_v5_MB,1,4,false,8,1,Correct,0.699737890087272,6,S02,F,L,21,1
ChD_v5_MB,1,4,false,9,1,Wrong,0.809703937653394,7,S02,F,L,21,2
ChD_v5_MB,1,4,false,10,0,Wrong,0.819684901491419,5,S02,F,L,21,3
ChD_v5_MB,1,4,false,11,0,Correct,0.799706589814014,6,S02,F,L,21,4
ChD_v5_MB,1,4,false,12,0,Correct,0.749715413283411,7,S02,F,L,21,4
ChD_v5_MB,1,4,false,13,0,Correct,0.759714126456238,5,S02,F,L,21,4
ChD_v5_MB,1,4,false,14,0,Correct,0.769708402295364,6,S02,F,L,21,4
ChD_v5_MB,1,4,false,15,1,Correct,0.709734555259929,7,S02,F,L,21,1
ChD_v5_MB,1,4,false,16,0,Correct,0.769710450295534,5,S02,F,L,21,4
ChD_v5_MB,1,4,false,17,1,Wrong,0.699738231420633,6,S02,F,L,21,2
ChD_v5_MB,1,4,false,18,0,Correct,0.709735237926652,5,S02,F,L,21,4
ChD_v5_MB,1,4,false,19,0,Correct,0.719730196432502,7,S02,F,L,21,4
ChD_v5_MB,1,4,false,20,1,Wrong,1.41947969185407,6,S02,F,L,21,2
ChD_v5_MB,1,4,false,21,0,Correct,0.789700367307232,7,S02,F,L,21,4
ChD_v5_MB,1,4,false,22,1,Correct,0.789699001973786,5,S02,F,L,21,1
ChD_v5_MB,1,4,false,23,1,Wrong,0.699737207420549,6,S02,F,L,21,2
ChD_v5_MB,1,4,false,24,0,Correct,0.649761049557856,5,S02,F,L,21,4
ChD_v5_MB,1,4,false,25,1,Correct,0.759711737122707,5,S02,F,L,21,1
ChD_v5_MB,1,4,false,26,0,Correct,0.849672849009221,7,S02,F,L,21,4
ChD_v5_MB,1,4,false,27,1,Correct,0.789700025973871,5,S02,F,L,21,1
ChD_v5_MB,1,4,false,28,1,Wrong,0.729723789604905,6,S02,F,L,21,2
ChD_v5_MB,1,4,false,29,1,Wrong,0.829681566664076,7,S02,F,L,21,2
ChD_v5_MB,1,4,false,30,1,Wrong,0.869746727297606,7,S02,F,L,21,2
ChD_v5_MB,1,4,false,31,0,Wrong,0.709734555259929,6,S02,F,L,21,3
ChD_v5_MB,1,4,false,32,0,Correct,0.779705750134744,7,S02,F,L,21,4
ChD_v5_MB,1,4,false,33,0,Correct,0.659755666730343,5,S02,F,L,21,4
ChD_v5_MB,1,4,false,34,1,Correct,0.739720796110923,5,S02,F,L,21,1
ChD_v5_MB,1,4,false,35,1,Correct,0.809690284318931,6,S02,F,L,21,1
ChD_v5_MB,1,4,false,36,1,Correct,0.939633278229012,6,S02,F,L,21,1
ChD_v5_MB,1,4,false,37,1,Wrong,1.09956490232362,7,S02,F,L,21,2
ChD_v5_MB,1,4,false,38,1,Correct,0.829689075998031,5,S02,F,L,21,1
ChD_v5_MB,1,4,false,39,1,Correct,0.81968524282478,5,S02,F,L,21,1
ChD_v5_MB,1,4,false,40,1,Correct,0.559799937671341,7,S02,F,L,21,1
ChD_v5_MB,1,4,false,41,1,Wrong,0.889656437699596,7,S02,F,L,21,2
ChD_v5_MB,1,4,false,42,0,Correct,0.809691649652377,6,S02,F,L,21,4
ChD_v5_MB,2,4,true,1,0,Correct,0.689742248914699,6,S02,F,L,21,4
ChD_v5_MB,2,4,true,2,1,Correct,0.559846700345515,5,S02,F,L,21,1
ChD_v5_MB,2,4,true,3,1,Wrong,0.45984420861234,7,S02,F,L,21,2
ChD_v5_MB,2,4,true,4,0,Correct,0.829683955997607,7,S02,F,L,21,4
ChD_v5_MB,2,4,true,5,1,Correct,0.60977950886765,5,S02,F,L,21,1
ChD_v5_MB,2,4,true,6,0,Correct,0.409864296082669,5,S02,F,L,21,4
ChD_v5_MB,2,4,true,7,1,Correct,0.589785154522251,6,S02,F,L,21,1
ChD_v5_MB,2,4,true,8,0,Correct,0.499824383969099,5,S02,F,L,21,4
ChD_v5_MB,2,4,true,9,1,Correct,0.799693960479635,5,S02,F,L,21,1
ChD_v5_MB,2,4,true,10,1,Correct,0.679745925075404,7,S02,F,L,21,1
ChD_v5_MB,2,4,true,11,1,Correct,0.929639343723247,7,S02,F,L,21,1
ChD_v5_MB,2,4,true,12,1,Wrong,0.39986933757682,7,S02,F,L,21,2
ChD_v5_MB,2,4,true,13,1,Correct,0.459843184612255,6,S02,F,L,21,1
ChD_v5_MB,2,4,true,14,1,Correct,0.619773784706776,5,S02,F,L,21,1
ChD_v5_MB,2,4,true,15,1,Wrong,0.6897466862484,6,S02,F,L,21,2
ChD_v5_MB,2,4,true,16,1,Correct,0.859671562182048,7,S02,F,L,21,1
ChD_v5_MB,2,4,true,17,1,Correct,0.789699001973786,7,S02,F,L,21,1
ChD_v5_MB,2,4,true,18,1,Correct,0.649762073561578,7,S02,F,L,21,1
ChD_v5_MB,2,4,true,19,0,Wrong,0.77970745680519,6,S02,F,L,21,3
ChD_v5_MB,2,4,true,20,1,Wrong,0.559800620338065,5,S02,F,L,21,2
ChD_v5_MB,2,4,true,21,0,Correct,0.649760708228132,5,S02,F,L,21,4
ChD_v5_MB,2,4,true,22,0,Correct,0.559798913671257,5,S02,F,L,21,4
ChD_v5_MB,2,4,true,23,0,Correct,0.489829425463249,6,S02,F,L,21,4
ChD_v5_MB,2,4,true,24,0,Correct,0.609777119534119,6,S02,F,L,21,4
ChD_v5_MB,2,4,true,25,0,Correct,0.689742931581422,5,S02,F,L,21,4
ChD_v5_MB,2,4,true,26,1,Wrong,0.669940973458724,7,S02,F,L,21,2
ChD_v5_MB,2,4,true,27,0,Correct,0.599795131699648,7,S02,F,L,21,4
ChD_v5_MB,2,4,true,28,1,Correct,0.509824462475371,6,S02,F,L,21,1
ChD_v5_MB,2,4,true,29,0,Correct,0.539808996659558,6,S02,F,L,21,4
ChD_v5_MB,2,4,true,30,0,Correct,0.569794554843829,5,S02,F,L,21,4
ChD_v5_MB,2,4,true,31,0,Correct,0.729725496271712,5,S02,F,L,21,4
ChD_v5_MB,2,4,true,32,0,Wrong,0.769708060962003,7,S02,F,L,21,3
ChD_v5_MB,2,4,true,33,0,Correct,0.529811990153539,5,S02,F,L,21,4
ChD_v5_MB,2,4,true,34,0,Correct,0.549803955165407,5,S02,F,L,21,4
ChD_v5_MB,2,4,true,35,0,Correct,0.559798572337895,6,S02,F,L,21,4
ChD_v5_MB,2,4,true,36,1,Correct,0.709735237926652,6,S02,F,L,21,1
ChD_v5_MB,2,4,true,37,0,Correct,0.539809679326281,6,S02,F,L,21,4
ChD_v5_MB,2,4,true,38,1,Correct,0.669749601236108,7,S02,F,L,21,1
ChD_v5_MB,2,4,true,39,1,Correct,0.569793872177106,6,S02,F,L,21,1
ChD_v5_MB,2,4,true,40,1,Wrong,0.579790196016402,7,S02,F,L,21,2
ChD_v5_MB,2,4,true,41,0,Correct,0.539806607326027,6,S02,F,L,21,4
ChD_v5_MB,2,4,true,42,0,Correct,0.529814720820432,7,S02,F,L,21,4
ChD_v5_MB,3,7,false,1,0,Correct,0.399868313576735,7,S02,F,L,21,4
ChD_v5_MB,3,7,false,2,0,Correct,0.459843525945616,6,S02,F,L,21,4
ChD_v5_MB,3,7,false,3,1,Wrong,0.499825407969183,5,S02,F,L,21,2
ChD_v5_MB,3,7,false,4,0,Correct,0.619783683374262,7,S02,F,L,21,4
ChD_v5_MB,3,7,false,5,1,Wrong,0.519818055651413,5,S02,F,L,21,2
ChD_v5_MB,3,7,false,6,1,Correct,0.439852243604109,5,S02,F,L,21,1
ChD_v5_MB,3,7,false,7,1,Correct,0.599781478361547,6,S02,F,L,21,1
ChD_v5_MB,3,7,false,8,1,Wrong,0.399869678910181,5,S02,F,L,21,2
ChD_v5_MB,3,7,false,9,1,Wrong,0.689743272914784,6,S02,F,L,21,2
ChD_v5_MB,3,7,false,10,0,Correct,0.55991032501508,5,S02,F,L,21,4
ChD_v5_MB,3,7,false,11,1,Correct,0.679758895743144,7,S02,F,L,21,1
ChD_v5_MB,3,7,false,12,1,Correct,0.79969498447972,7,S02,F,L,21,1
ChD_v5_MB,3,7,false,13,0,Correct,0.629769084545987,7,S02,F,L,21,4
ChD_v5_MB,3,7,false,14,0,Correct,0.949628919401584,6,S02,F,L,21,4
ChD_v5_MB,3,7,false,15,0,Correct,0.799694301812997,7,S02,F,L,21,4
ChD_v5_MB,3,7,false,16,0,Wrong,0.849672849009221,6,S02,F,L,21,3
ChD_v5_MB,3,7,false,17,0,Correct,0.799697373813251,7,S02,F,L,21,4
ChD_v5_MB,3,7,false,18,1,Correct,0.589787885189144,5,S02,F,L,21,1
ChD_v5_MB,3,7,false,19,0,Correct,0.41985959592188,7,S02,F,L,21,4
ChD_v5_MB,3,7,false,20,1,Correct,0.839678573170095,7,S02,F,L,21,1
ChD_v5_MB,3,7,false,21,0,Correct,0.569794554843829,6,S02,F,L,21,4
ChD_v5_MB,3,7,false,22,0,Correct,0.63976472571856,5,S02,F,L,21,4
ChD_v5_MB,3,7,false,23,0,Correct,0.689742590248061,6,S02,F,L,21,4
ChD_v5_MB,3,7,false,24,1,Wrong,0.879660455193662,5,S02,F,L,21,2
ChD_v5_MB,3,7,false,25,1,Correct,0.469838484451466,5,S02,F,L,21,1
ChD_v5_MB,3,7,false,26,0,Correct,0.439852243600471,6,S02,F,L,21,4
ChD_v5_MB,3,7,false,27,0,Wrong,0.599785233028524,7,S02,F,L,21,3
ChD_v5_MB,3,7,false,28,1,Wrong,0.479841976291354,7,S02,F,L,21,2
ChD_v5_MB,3,7,false,29,1,Correct,0.419860619921965,6,S02,F,L,21,1
ChD_v5_MB,3,7,false,30,1,Correct,0.839677890503372,6,S02,F,L,21,1
ChD_v5_MB,3,7,false,31,1,Wrong,0.899650713538722,5,S02,F,L,21,2
ChD_v5_MB,3,7,false,32,0,Correct,0.499827114635991,5,S02,F,L,21,4
ChD_v5_MB,3,7,false,33,0,Correct,0.649761049557856,6,S02,F,L,21,4
ChD_v5_MB,3,7,false,34,1,Wrong,0.529811648820178,6,S02,F,L,21,2
ChD_v5_MB,3,7,false,35,1,Correct,0.569795920177276,6,S02,F,L,21,1
ChD_v5_MB,3,7,false,36,1,Correct,1.00960310777038,6,S02,F,L,21,1
ChD_v5_MB,3,7,false,37,0,Correct,0.509822414475202,5,S02,F,L,21,4
ChD_v5_MB,3,7,false,38,1,Correct,0.669756769236701,7,S02,F,L,21,1
ChD_v5_MB,3,7,false,39,0,Correct,0.849677286342921,7,S02,F,L,21,4
ChD_v5_MB,3,7,false,40,0,Correct,0.519816690314328,5,S02,F,L,21,4
ChD_v5_MB,3,7,false,41,1,Correct,0.569798650844168,7,S02,F,L,21,1
ChD_v5_MB,3,7,false,42,0,Correct,0.539808313996473,5,S02,F,L,21,4
ChD_v5_MB,4,7,true,1,0,Correct,0.409867368082923,7,S02,F,L,21,4
ChD_v5_MB,4,7,true,2,1,Correct,0.489831132130057,5,S02,F,L,21,1
ChD_v5_MB,4,7,true,3,0,Correct,0.419860619921965,7,S02,F,L,21,4
ChD_v5_MB,4,7,true,4,0,Correct,0.749718143950304,7,S02,F,L,21,4
ChD_v5_MB,4,7,true,5,1,Correct,0.989611142758513,5,S02,F,L,21,1
ChD_v5_MB,4,7,true,6,1,Correct,0.719731903099309,6,S02,F,L,21,1
ChD_v5_MB,4,7,true,7,1,Correct,0.8096923323191,5,S02,F,L,21,1
ChD_v5_MB,4,7,true,8,1,Wrong,0.409864978749392,5,S02,F,L,21,2
ChD_v5_MB,4,7,true,9,1,Wrong,0.529811648820178,5,S02,F,L,21,2
ChD_v5_MB,4,7,true,10,0,Correct,0.90964533071121,7,S02,F,L,21,4
ChD_v5_MB,4,7,true,11,0,Correct,0.709734896593291,6,S02,F,L,21,4
ChD_v5_MB,4,7,true,12,1,Wrong,0.61977241937333,7,S02,F,L,21,2
ChD_v5_MB,4,7,true,13,0,Wrong,0.829683955997607,6,S02,F,L,21,3
ChD_v5_MB,4,7,true,14,1,Wrong,0.589785837188974,7,S02,F,L,21,2
ChD_v5_MB,4,7,true,15,1,Correct,0.549803955165407,6,S02,F,L,21,1
ChD_v5_MB,4,7,true,16,0,Wrong,0.959623877907434,6,S02,F,L,21,3
ChD_v5_MB,4,7,true,17,1,Wrong,0.589785495855613,6,S02,F,L,21,2
ChD_v5_MB,4,7,true,18,0,Correct,0.529813696820347,7,S02,F,L,21,4
ChD_v5_MB,4,7,true,19,1,Correct,0.839677207836648,5,S02,F,L,21,1
ChD_v5_MB,4,7,true,20,1,Correct,0.749716095950134,5,S02,F,L,21,1
ChD_v5_MB,4,7,true,21,1,Wrong,1.10955951949611,5,S02,F,L,21,2
ChD_v5_MB,4,7,true,22,0,Correct,0.729728909605328,7,S02,F,L,21,4
ChD_v5_MB,4,7,true,23,0,Correct,0.529823254154471,6,S02,F,L,21,4
ChD_v5_MB,4,7,true,24,0,Correct,0.629769425879349,5,S02,F,L,21,4
ChD_v5_MB,4,7,true,25,0,Wrong,0.519818738314498,7,S02,F,L,21,3
ChD_v5_MB,4,7,true,26,1,Correct,0.709733531259844,5,S02,F,L,21,1
ChD_v5_MB,4,7,true,27,0,Correct,0.599784891695162,7,S02,F,L,21,4
ChD_v5_MB,4,7,true,28,1,Wrong,0.629769425879349,5,S02,F,L,21,2
ChD_v5_MB,4,7,true,29,1,Wrong,0.69973959675408,6,S02,F,L,21,2
ChD_v5_MB,4,7,true,30,1,Wrong,0.499827455969353,7,S02,F,L,21,2
ChD_v5_MB,4,7,true,31,1,Correct,0.4798344669574,7,S02,F,L,21,1
ChD_v5_MB,4,7,true,32,0,Wrong,0.919641995883867,7,S02,F,L,21,3
ChD_v5_MB,4,7,true,33,0,Correct,0.639764043051837,7,S02,F,L,21,4
ChD_v5_MB,4,7,true,34,1,Correct,0.949658956737403,6,S02,F,L,21,1
ChD_v5_MB,4,7,true,35,1,Wrong,1.50938550773601,6,S02,F,L,21,2
ChD_v5_MB,4,7,true,36,0,Correct,0.839678231840371,6,S02,F,L,21,4
ChD_v5_MB,4,7,true,37,0,Correct,0.869670958021597,6,S02,F,L,21,4
ChD_v5_MB,4,7,true,38,1,Wrong,0.929639685056609,6,S02,F,L,21,2
ChD_v5_MB,4,7,true,39,0,Correct,0.649759684224409,6,S02,F,L,21,4
ChD_v5_MB,4,7,true,40,0,Correct,0.729724472271628,5,S02,F,L,21,4
ChD_v5_MB,4,7,true,41,0,Wrong,0.459843184612255,5,S02,F,L,21,3
ChD_v5_MB,4,7,true,42,0,Correct,0.729729933609051,5,S02,F,L,21,4
ChD_v5_MB,5,0,true,1,1,Correct,0.529811990153539,5,S02,F,L,21,1
ChD_v5_MB,5,0,true,2,0,Correct,0.62977386321305,7,S02,F,L,21,4
ChD_v5_MB,5,0,true,3,1,Wrong,0.659754642730259,5,S02,F,L,21,2
ChD_v5_MB,5,0,true,4,0,Correct,0.479833784290677,6,S02,F,L,21,4
ChD_v5_MB,5,0,true,5,0,Correct,0.709742747260607,6,S02,F,L,21,4
ChD_v5_MB,5,0,true,6,1,Correct,0.409864978749392,5,S02,F,L,21,1
ChD_v5_MB,5,0,true,7,1,Correct,0.609780191534373,7,S02,F,L,21,1
ChD_v5_MB,5,0,true,8,0,Correct,0.839684375837242,6,S02,F,L,21,4
ChD_v5_MB,5,0,true,9,0,Correct,0.839676866503287,7,S02,F,L,21,4
ChD_v5_MB,5,0,true,10,0,Correct,0.379889319232607,5,S02,F,L,21,4
ChD_v5_MB,5,0,true,11,0,Correct,0.589785154522251,6,S02,F,L,21,4
ChD_v5_MB,5,0,true,12,0,Correct,0.439860094271426,6,S02,F,L,21,4
ChD_v5_MB,5,0,true,13,1,Correct,0.449848908773129,6,S02,F,L,21,1
ChD_v5_MB,5,0,true,14,1,Wrong,0.369891288730141,6,S02,F,L,21,2
ChD_v5_MB,5,0,true,15,1,Correct,0.669759841240593,7,S02,F,L,21,1
ChD_v5_MB,5,0,true,16,1,Correct,0.59978216102827,5,S02,F,L,21,1
ChD_v5_MB,5,0,true,17,0,Correct,0.409863613415946,6,S02,F,L,21,4
ChD_v5_MB,5,0,true,18,1,Correct,0.46983984978855,6,S02,F,L,21,1
ChD_v5_MB,5,0,true,19,1,Correct,0.869674712688575,5,S02,F,L,21,1
ChD_v5_MB,5,0,true,20,1,Correct,0.48983386279695,5,S02,F,L,21,1
ChD_v5_MB,5,0,true,21,0,Correct,0.369881048725656,5,S02,F,L,21,4
ChD_v5_MB,5,0,true,22,0,Wrong,0.619773102040053,5,S02,F,L,21,3
ChD_v5_MB,5,0,true,23,0,Correct,0.819686266828503,7,S02,F,L,21,4
ChD_v5_MB,5,0,true,24,0,Correct,0.549805320502492,7,S02,F,L,21,4
ChD_v5_MB,5,0,true,25,0,Wrong,0.699753250088543,7,S02,F,L,21,3
ChD_v5_MB,5,0,true,26,1,Correct,0.659755325396982,5,S02,F,L,21,1
ChD_v5_MB,5,0,true,27,1,Correct,0.799695325813082,5,S02,F,L,21,1
ChD_v5_MB,5,0,true,28,1,Correct,0.759712078456068,7,S02,F,L,21,1
ChD_v5_MB,5,0,true,29,0,Correct,0.629769084545987,6,S02,F,L,21,4
ChD_v5_MB,5,0,true,30,1,Correct,0.759719587790023,7,S02,F,L,21,1
ChD_v5_MB,5,0,true,31,0,Correct,0.429856261094537,7,S02,F,L,21,4
ChD_v5_MB,5,0,true,32,1,Correct,0.739720454777562,5,S02,F,L,21,1
ChD_v5_MB,5,0,true,33,1,Correct,0.629768401879264,7,S02,F,L,21,1
ChD_v5_MB,5,0,true,34,1,Correct,0.74971507195005,7,S02,F,L,21,1
ChD_v5_MB,5,0,true,35,1,Correct,0.789702415307402,6,S02,F,L,21,1
ChD_v5_MB,5,0,true,36,1,Wrong,0.419860619921965,6,S02,F,L,21,2
ChD_v5_MB,5,0,true,37,0,Wrong,0.969620201746729,5,S02,F,L,21,3
ChD_v5_MB,5,0,true,38,1,Correct,0.759713443789515,6,S02,F,L,21,1
ChD_v5_MB,5,0,true,39,0,Correct,0.739719772110839,7,S02,F,L,21,4
ChD_v5_MB,5,0,true,40,0,Correct,0.879666940527531,7,S02,F,L,21,4
ChD_v5_MB,5,0,true,41,0,Correct,0.689760680916224,5,S02,F,L,21,4
ChD_v5_MB,5,0,true,42,0,Correct,0.729725154938351,6,S02,F,L,21,4
ChD_v5_MB,6,0,true,1,1,Correct,0.629769767212711,5,S02,F,L,21,1
ChD_v5_MB,6,0,true,2,0,Correct,0.799692595146189,6,S02,F,L,21,4
ChD_v5_MB,6,0,true,3,1,Correct,0.699736183420464,7,S02,F,L,21,1
ChD_v5_MB,6,0,true,4,1,Correct,0.709736944597098,5,S02,F,L,21,1
ChD_v5_MB,6,0,true,5,0,Correct,0.669754038569808,7,S02,F,L,21,4
ChD_v5_MB,6,0,true,6,1,Wrong,0.469838143118104,6,S02,F,L,21,2
ChD_v5_MB,6,0,true,7,0,Correct,0.559798572337895,5,S02,F,L,21,4
ChD_v5_MB,6,0,true,8,1,Correct,0.499825749302545,6,S02,F,L,21,1
ChD_v5_MB,6,0,true,9,0,Correct,0.72972720293852,6,S02,F,L,21,4
ChD_v5_MB,6,0,true,10,0,Correct,0.769708060962003,7,S02,F,L,21,4
ChD_v5_MB,6,0,true,11,1,Correct,0.709733531259844,6,S02,F,L,21,1
ChD_v5_MB,6,0,true,12,0,Correct,0.449847884773044,5,S02,F,L,21,4
ChD_v5_MB,6,0,true,13,1,Correct,0.839685058503965,7,S02,F,L,21,1
ChD_v5_MB,6,0,true,14,0,Correct,0.609778484867566,7,S02,F,L,21,4
ChD_v5_MB,6,0,true,15,0,Correct,1.19952063138262,6,S02,F,L,21,4
ChD_v5_MB,6,0,true,16,1,Correct,1.07957225464503,7,S02,F,L,21,1
ChD_v5_MB,6,0,true,17,1,Correct,0.99960780793117,6,S02,F,L,21,1
ChD_v5_MB,6,0,true,18,0,Correct,0.609859080613678,5,S02,F,L,21,4
ChD_v5_MB,6,0,true,19,1,Correct,0.739719772110839,5,S02,F,L,21,1
ChD_v5_MB,6,0,true,20,0,Correct,0.739722844111093,6,S02,F,L,21,4
ChD_v5_MB,6,0,true,21,0,Correct,0.779707798134914,7,S02,F,L,21,4
ChD_v5_MB,6,0,true,22,1,Correct,0.58978481318889,6,S02,F,L,21,1
ChD_v5_MB,6,0,true,23,0,Correct,0.799694301812997,7,S02,F,L,21,4
ChD_v5_MB,6,0,true,24,0,Correct,0.699738572753995,5,S02,F,L,21,4
ChD_v5_MB,6,0,true,25,1,Wrong,0.689741566247976,7,S02,F,L,21,2
ChD_v5_MB,6,0,true,26,1,Correct,0.829683614664245,6,S02,F,L,21,1
ChD_v5_MB,6,0,true,27,1,Correct,0.769708402295364,7,S02,F,L,21,1
ChD_v5_MB,6,0,true,28,0,Correct,0.869665838021174,7,S02,F,L,21,4
ChD_v5_MB,6,0,true,29,1,Wrong,0.639764043051837,7,S02,F,L,21,2
ChD_v5_MB,6,0,true,30,0,Correct,0.629772839212965,5,S02,F,L,21,4
ChD_v5_MB,6,0,true,31,0,Correct,0.699738231420633,7,S02,F,L,21,4
ChD_v5_MB,6,0,true,32,1,Correct,0.559803351004957,5,S02,F,L,21,1
ChD_v5_MB,6,0,true,33,1,Wrong,0.53980728999275,6,S02,F,L,21,2
ChD_v5_MB,6,0,true,34,0,Correct,0.549804637832131,5,S02,F,L,21,4
ChD_v5_MB,6,0,true,35,1,Correct,0.729725154938351,7,S02,F,L,21,1
ChD_v5_MB,6,0,true,36,1,Wrong,0.659756008063705,6,S02,F,L,21,2
ChD_v5_MB,6,0,true,37,0,Correct,0.489830449466972,5,S02,F,L,21,4
ChD_v5_MB,6,0,true,38,0,Correct,0.569795578843914,5,S02,F,L,21,4
ChD_v5_MB,6,0,true,39,0,Wrong,0.729725154938351,5,S02,F,L,21,3
ChD_v5_MB,6,0,true,40,1,Wrong,0.669754038569808,6,S02,F,L,21,2
ChD_v5_MB,6,0,true,41,0,Correct,0.63976472571856,5,S02,F,L,21,4
ChD_v5_MB,6,0,true,42,1,Correct,0.769707378295279,6,S02,F,L,21,1
ChD_v5_MB,7,7,false,1,1,Correct,0.789702756644401,5,S02,F,L,21,1
ChD_v5_MB,7,7,false,2,0,Correct,0.539810703330004,7,S02,F,L,21,4
ChD_v5_MB,7,7,false,3,1,Correct,0.949629260734946,5,S02,F,L,21,1
ChD_v5_MB,7,7,false,4,1,Wrong,0.809691308319016,6,S02,F,L,21,2
ChD_v5_MB,7,7,false,5,1,Correct,0.549804296498769,6,S02,F,L,21,1
ChD_v5_MB,7,7,false,6,0,Correct,0.769707719628641,6,S02,F,L,21,4
ChD_v5_MB,7,7,false,7,1,Correct,0.649760366891132,6,S02,F,L,21,1
ChD_v5_MB,7,7,false,8,0,Correct,0.499826090635906,7,S02,F,L,21,4
ChD_v5_MB,7,7,false,9,1,Wrong,0.529812331486901,5,S02,F,L,21,2
ChD_v5_MB,7,7,false,10,1,Correct,0.569794896177191,5,S02,F,L,21,1
ChD_v5_MB,7,7,false,11,0,Correct,0.51981703164769,6,S02,F,L,21,4
ChD_v5_MB,7,7,false,12,1,Correct,0.85966780751507,7,S02,F,L,21,1
ChD_v5_MB,7,7,false,13,1,Wrong,0.639767456385453,5,S02,F,L,21,2
ChD_v5_MB,7,7,false,14,0,Correct,0.489831132130057,7,S02,F,L,21,4
ChD_v5_MB,7,7,false,15,0,Correct,0.629769084545987,6,S02,F,L,21,4
ChD_v5_MB,7,7,false,16,1,Correct,0.899650030871999,5,S02,F,L,21,1
ChD_v5_MB,7,7,false,17,0,Correct,0.549802931165323,5,S02,F,L,21,4
ChD_v5_MB,7,7,false,18,0,Correct,0.49982472530246,5,S02,F,L,21,4
ChD_v5_MB,7,7,false,19,1,Correct,0.689742248914699,5,S02,F,L,21,1
ChD_v5_MB,7,7,false,20,0,Wrong,0.839677207836648,7,S02,F,L,21,3
ChD_v5_MB,7,7,false,21,0,Correct,0.499827797302714,5,S02,F,L,21,4
ChD_v5_MB,7,7,false,22,1,Correct,0.669751649236277,7,S02,F,L,21,1
ChD_v5_MB,7,7,false,23,1,Wrong,0.499985623249813,6,S02,F,L,21,2
ChD_v5_MB,7,7,false,24,1,Wrong,0.689742248914699,7,S02,F,L,21,2
ChD_v5_MB,7,7,false,25,0,Correct,0.849672507675859,7,S02,F,L,21,4
ChD_v5_MB,7,7,false,26,0,Correct,0.549871532437101,6,S02,F,L,21,4
ChD_v5_MB,7,7,false,27,0,Correct,0.579789513349679,6,S02,F,L,21,4
ChD_v5_MB,7,7,false,28,0,Correct,0.549803272498684,7,S02,F,L,21,4
ChD_v5_MB,7,7,false,29,1,Correct,0.739721137444285,7,S02,F,L,21,1
ChD_v5_MB,7,7,false,30,0,Correct,0.599781137028185,7,S02,F,L,21,4
ChD_v5_MB,7,7,false,31,0,Correct,0.499828821302799,5,S02,F,L,21,4
ChD_v5_MB,7,7,false,32,0,Correct,0.699737890087272,7,S02,F,L,21,4
ChD_v5_MB,7,7,false,33,1,Wrong,0.769708743628726,6,S02,F,L,21,2
ChD_v5_MB,7,7,false,34,1,Wrong,0.569794554843829,7,S02,F,L,21,2
ChD_v5_MB,7,7,false,35,0,Correct,0.579793950683379,6,S02,F,L,21,4
ChD_v5_MB,7,7,false,36,0,Correct,0.539810020659643,5,S02,F,L,21,4
ChD_v5_MB,7,7,false,37,1,Correct,0.489830108129972,5,S02,F,L,21,1
ChD_v5_MB,7,7,false,38,1,Correct,0.509820025141671,6,S02,F,L,21,1
ChD_v5_MB,7,7,false,39,0,Wrong,0.689740883581253,7,S02,F,L,21,3
ChD_v5_MB,7,7,false,40,0,Correct,0.619773784710414,6,S02,F,L,21,4
ChD_v5_MB,7,7,false,41,1,Correct,0.719730196432502,5,S02,F,L,21,1
ChD_v5_MB,7,7,false,42,1,Wrong,0.639767797718814,6,S02,F,L,21,2
ChD_v5_MB,8,4,true,1,0,Correct,0.459843525945616,7,S02,F,L,21,4
ChD_v5_MB,8,4,true,2,0,Wrong,0.699737890087272,5,S02,F,L,21,3
ChD_v5_MB,8,4,true,3,1,Wrong,0.399867972243374,7,S02,F,L,21,2
ChD_v5_MB,8,4,true,4,1,Wrong,0.39986933757682,6,S02,F,L,21,2
ChD_v5_MB,8,4,true,5,1,Correct,0.619773443373415,5,S02,F,L,21,1
ChD_v5_MB,8,4,true,6,0,Correct,0.619777880707115,6,S02,F,L,21,4
ChD_v5_MB,8,4,true,7,1,Wrong,0.419865739922388,6,S02,F,L,21,2
ChD_v5_MB,8,4,true,8,1,Correct,0.48983181479678,5,S02,F,L,21,1
ChD_v5_MB,8,4,true,9,0,Correct,0.619772760706692,5,S02,F,L,21,4
ChD_v5_MB,8,4,true,10,1,Wrong,0.929639685056609,7,S02,F,L,21,2
ChD_v5_MB,8,4,true,11,0,Correct,0.469838825784827,6,S02,F,L,21,4
ChD_v5_MB,8,4,true,12,1,Correct,0.579789513349679,6,S02,F,L,21,1
ChD_v5_MB,8,4,true,13,0,Correct,0.669750283902831,7,S02,F,L,21,4
ChD_v5_MB,8,4,true,14,0,Correct,0.589787885189144,7,S02,F,L,21,4
ChD_v5_MB,8,4,true,15,1,Correct,0.529812672820262,6,S02,F,L,21,1
ChD_v5_MB,8,4,true,16,0,Wrong,0.69973959675408,5,S02,F,L,21,3
ChD_v5_MB,8,4,true,17,0,Correct,0.389877792408224,6,S02,F,L,21,4
ChD_v5_MB,8,4,true,18,1,Correct,0.809690625652292,5,S02,F,L,21,1
ChD_v5_MB,8,4,true,19,1,Correct,0.619781635377731,5,S02,F,L,21,1
ChD_v5_MB,8,4,true,20,1,Correct,0.599781478361547,7,S02,F,L,21,1
ChD_v5_MB,8,4,true,21,0,Correct,0.379879761898483,6,S02,F,L,21,4
ChD_v5_MB,8,4,true,22,1,Correct,0.659755666730343,6,S02,F,L,21,1
ChD_v5_MB,8,4,true,23,1,Wrong,0.419863009255496,7,S02,F,L,21,2
ChD_v5_MB,8,4,true,24,0,Correct,0.669750966569554,7,S02,F,L,21,4
ChD_v5_MB,8,4,true,25,0,Correct,0.569808549511654,5,S02,F,L,21,4
ChD_v5_MB,8,4,true,26,1,Correct,0.529812331486901,6,S02,F,L,21,1
ChD_v5_MB,8,4,true,27,0,Correct,0.469838484451466,5,S02,F,L,21,4
ChD_v5_MB,8,4,true,28,1,Correct,0.629768060545903,5,S02,F,L,21,1
ChD_v5_MB,8,4,true,29,1,Wrong,0.569793189510383,5,S02,F,L,21,2
ChD_v5_MB,8,4,true,30,1,Correct,0.599792742366117,5,S02,F,L,21,1
ChD_v5_MB,8,4,true,31,0,Correct,0.419859937255242,7,S02,F,L,21,4
ChD_v5_MB,8,4,true,32,0,Correct,0.529812331486901,7,S02,F,L,21,4
ChD_v5_MB,8,4,true,33,1,Correct,0.759712078456068,6,S02,F,L,21,1
ChD_v5_MB,8,4,true,34,0,Correct,0.429857626427984,7,S02,F,L,21,4
ChD_v5_MB,8,4,true,35,1,Correct,0.499826431969268,6,S02,F,L,21,1
ChD_v5_MB,8,4,true,36,0,Correct,0.289915919345076,6,S02,F,L,21,4
ChD_v5_MB,8,4,true,37,0,Correct,0.519820786314667,5,S02,F,L,21,4
ChD_v5_MB,8,4,true,38,1,Correct,0.599784550361801,5,S02,F,L,21,1
ChD_v5_MB,8,4,true,39,0,Correct,0.419863009255496,6,S02,F,L,21,4
ChD_v5_MB,8,4,true,40,0,Correct,0.419860278588603,7,S02,F,L,21,4
ChD_v5_MB,8,4,true,41,0,Correct,0.43986965160555,7,S02,F,L,21,4
ChD_v5_MB,8,4,true,42,1,Correct,0.759711737122707,7,S02,F,L,21,1
ChD_v5_MB,9,4,false,1,1,Wrong,0.479842317624716,6,S02,F,L,21,2
ChD_v5_MB,9,4,false,2,1,Wrong,0.659756349397067,5,S02,F,L,21,2
ChD_v5_MB,9,4,false,3,0,Wrong,0.6197744673735,6,S02,F,L,21,3
ChD_v5_MB,9,4,false,4,1,Correct,0.649761732224579,7,S02,F,L,21,1
ChD_v5_MB,9,4,false,5,1,Correct,1.01959977294304,5,S02,F,L,21,1
ChD_v5_MB,9,4,false,6,1,Correct,0.599781819694908,6,S02,F,L,21,1
ChD_v5_MB,9,4,false,7,0,Wrong,0.789699684640509,5,S02,F,L,21,3
ChD_v5_MB,9,4,false,8,1,Wrong,0.429855237094453,7,S02,F,L,21,2
ChD_v5_MB,9,4,false,9,0,Correct,0.499827455969353,5,S02,F,L,21,4
ChD_v5_MB,9,4,false,10,1,Correct,0.539808313992835,5,S02,F,L,21,1
ChD_v5_MB,9,4,false,11,1,Wrong,0.469837801784743,6,S02,F,L,21,2
ChD_v5_MB,9,4,false,12,1,Correct,0.529813355486985,7,S02,F,L,21,1
ChD_v5_MB,9,4,false,13,1,Wrong,0.749723946617451,5,S02,F,L,21,2
ChD_v5_MB,9,4,false,14,0,Correct,0.659759762730682,7,S02,F,L,21,4
ChD_v5_MB,9,4,false,15,1,Correct,0.499824725306098,7,S02,F,L,21,1
ChD_v5_MB,9,4,false,16,0,Correct,0.439851219600387,5,S02,F,L,21,4
ChD_v5_MB,9,4,false,17,0,Correct,0.709733531259844,7,S02,F,L,21,4
ChD_v5_MB,9,4,false,18,1,Correct,0.589784471855528,6,S02,F,L,21,1
ChD_v5_MB,9,4,false,19,1,Wrong,0.419858571921795,7,S02,F,L,21,2
ChD_v5_MB,9,4,false,20,0,Correct,0.389875061737694,6,S02,F,L,21,4
ChD_v5_MB,9,4,false,21,1,Correct,0.50982241447884,6,S02,F,L,21,1
ChD_v5_MB,9,4,false,22,0,Correct,0.459842843278893,7,S02,F,L,21,4
ChD_v5_MB,9,4,false,23,0,Correct,0.459841819278809,7,S02,F,L,21,4
ChD_v5_MB,9,4,false,24,0,Correct,0.509821390475117,7,S02,F,L,21,4
ChD_v5_MB,9,4,false,25,1,Correct,0.509821049141756,5,S02,F,L,21,1
ChD_v5_MB,9,4,false,26,1,Correct,0.529813355486985,6,S02,F,L,21,1
ChD_v5_MB,9,4,false,27,0,Correct,0.459843525945616,5,S02,F,L,21,4
ChD_v5_MB,9,4,false,28,1,Correct,0.589786178522336,6,S02,F,L,21,1
ChD_v5_MB,9,4,false,29,0,Wrong,0.649767534891725,5,S02,F,L,21,3
ChD_v5_MB,9,4,false,30,1,Wrong,0.839676183836564,7,S02,F,L,21,2
ChD_v5_MB,9,4,false,31,0,Correct,0.589787202522421,6,S02,F,L,21,4
ChD_v5_MB,9,4,false,32,0,Correct,0.599786257028609,7,S02,F,L,21,4
ChD_v5_MB,9,4,false,33,0,Wrong,0.939633619566011,5,S02,F,L,21,3
ChD_v5_MB,9,4,false,34,0,Correct,0.489863558803045,6,S02,F,L,21,4
ChD_v5_MB,9,4,false,35,1,Correct,0.689742931581422,6,S02,F,L,21,1
ChD_v5_MB,9,4,false,36,0,Correct,0.609776778200758,6,S02,F,L,21,4
ChD_v5_MB,9,4,false,37,0,Wrong,0.839679597170179,7,S02,F,L,21,3
ChD_v5_MB,9,4,false,38,0,Correct,0.769708060962003,5,S02,F,L,21,4
ChD_v5_MB,9,4,false,39,0,Correct,0.479833442957315,7,S02,F,L,21,4
ChD_v5_MB,9,4,false,40,1,Correct,0.569798650844168,5,S02,F,L,21,1
ChD_v5_MB,9,4,false,41,1,Wrong,0.429943048636924,6,S02,F,L,21,2
ChD_v5_MB,9,4,false,42,0,Correct,0.729725154938351,5,S02,F,L,21,4
ChD_v5_MB,10,7,true,1,0,Correct,0.549907515845553,5,S02,F,L,21,4
ChD_v5_MB,10,7,true,2,1,Correct,0.499825066635822,7,S02,F,L,21,1
ChD_v5_MB,10,7,true,3,1,Wrong,0.819693434825458,7,S02,F,L,21,2
ChD_v5_MB,10,7,true,4,1,Correct,0.569794554843829,5,S02,F,L,21,1
ChD_v5_MB,10,7,true,5,0,Correct,0.529814720820432,7,S02,F,L,21,4
ChD_v5_MB,10,7,true,6,1,Wrong,0.529818816820771,7,S02,F,L,21,2
ChD_v5_MB,10,7,true,7,0,Correct,0.60977950886765,7,S02,F,L,21,4
ChD_v5_MB,10,7,true,8,0,Wrong,0.709734213926567,6,S02,F,L,21,3
ChD_v5_MB,10,7,true,9,1,Wrong,0.419864033255581,7,S02,F,L,21,2
ChD_v5_MB,10,7,true,10,0,Correct,0.569830196915282,5,S02,F,L,21,4
ChD_v5_MB,10,7,true,11,1,Wrong,0.469838484451466,7,S02,F,L,21,2
ChD_v5_MB,10,7,true,12,0,Correct,0.529812331486901,6,S02,F,L,21,4
ChD_v5_MB,10,7,true,13,0,Correct,0.65975498406362,6,S02,F,L,21,4
ChD_v5_MB,10,7,true,14,1,Correct,0.449894306113856,5,S02,F,L,21,1
ChD_v5_MB,10,7,true,15,1,Correct,0.639765749718645,7,S02,F,L,21,1
ChD_v5_MB,10,7,true,16,1,Wrong,0.539806265992665,5,S02,F,L,21,2
ChD_v5_MB,10,7,true,17,1,Correct,0.709742405927245,6,S02,F,L,21,1
ChD_v5_MB,10,7,true,18,1,Correct,0.65975498406362,5,S02,F,L,21,1
ChD_v5_MB,10,7,true,19,1,Correct,0.569799333510891,6,S02,F,L,21,1
ChD_v5_MB,10,7,true,20,1,Correct,0.879662161860469,5,S02,F,L,21,1
ChD_v5_MB,10,7,true,21,0,Correct,0.499826431969268,6,S02,F,L,21,4
ChD_v5_MB,10,7,true,22,1,Correct,0.78969763664034,5,S02,F,L,21,1
ChD_v5_MB,10,7,true,23,0,Correct,0.809689942985569,5,S02,F,L,21,4
ChD_v5_MB,10,7,true,24,0,Correct,0.509826169145817,5,S02,F,L,21,4
ChD_v5_MB,10,7,true,25,0,Correct,0.599781478361547,5,S02,F,L,21,4
ChD_v5_MB,10,7,true,26,0,Correct,0.539808313992835,6,S02,F,L,21,4
ChD_v5_MB,10,7,true,27,1,Correct,0.619833415715984,7,S02,F,L,21,1
ChD_v5_MB,10,7,true,28,1,Wrong,0.669753697236447,7,S02,F,L,21,2
ChD_v5_MB,10,7,true,29,1,Correct,0.769708402295364,6,S02,F,L,21,1
ChD_v5_MB,10,7,true,30,1,Correct,0.649759342891048,6,S02,F,L,21,1
ChD_v5_MB,10,7,true,31,0,Correct,0.479834808290761,5,S02,F,L,21,4
ChD_v5_MB,10,7,true,32,0,Correct,0.429855578427814,6,S02,F,L,21,4
ChD_v5_MB,10,7,true,33,0,Correct,0.449846860772959,6,S02,F,L,21,4
ChD_v5_MB,10,7,true,34,1,Wrong,0.719730196432502,7,S02,F,L,21,2
ChD_v5_MB,10,7,true,35,1,Correct,0.619774126040138,6,S02,F,L,21,1
ChD_v5_MB,10,7,true,36,0,Correct,0.699747106088034,7,S02,F,L,21,4
ChD_v5_MB,10,7,true,37,0,Correct,0.6197789047072,6,S02,F,L,21,4
ChD_v5_MB,10,7,true,38,1,Correct,0.549804637832131,5,S02,F,L,21,1
ChD_v5_MB,10,7,true,39,0,Correct,0.559798913671257,7,S02,F,L,21,4
ChD_v5_MB,10,7,true,40,0,Wrong,0.999608149264532,7,S02,F,L,21,3
ChD_v5_MB,10,7,true,41,0,Correct,0.689742248914699,6,S02,F,L,21,4
ChD_v5_MB,10,7,true,42,0,Correct,0.539807631326112,5,S02,F,L,21,4
ChD_v5_MB,11,7,false,1,1,Correct,0.559799255004618,7,S02,F,L,21,1
ChD_v5_MB,11,7,false,2,1,Correct,0.609782239538181,5,S02,F,L,21,1
ChD_v5_MB,11,7,false,3,1,Correct,0.809690284318931,5,S02,F,L,21,1
ChD_v5_MB,11,7,false,4,0,Correct,0.509820707808394,7,S02,F,L,21,4
ChD_v5_MB,11,7,false,5,0,Correct,0.429857967761345,5,S02,F,L,21,4
ChD_v5_MB,11,7,false,6,0,Correct,0.549803955165407,5,S02,F,L,21,4
ChD_v5_MB,11,7,false,7,1,Wrong,0.499826090635906,7,S02,F,L,21,2
ChD_v5_MB,11,7,false,8,0,Correct,0.449851639440021,5,S02,F,L,21,4
ChD_v5_MB,11,7,false,9,0,Correct,0.439851560933748,5,S02,F,L,21,4
ChD_v5_MB,11,7,false,10,0,Correct,0.4098666854162,5,S02,F,L,21,4
ChD_v5_MB,11,7,false,11,1,Correct,0.419858571921795,7,S02,F,L,21,1
ChD_v5_MB,11,7,false,12,1,Wrong,0.749717461283581,6,S02,F,L,21,2
ChD_v5_MB,11,7,false,13,0,Correct,0.609779167534289,6,S02,F,L,21,4
ChD_v5_MB,11,7,false,14,0,Correct,0.559798572337895,6,S02,F,L,21,4
ChD_v5_MB,11,7,false,15,0,Correct,0.499827797302714,5,S02,F,L,21,4
ChD_v5_MB,11,7,false,16,0,Correct,0.509820707808394,6,S02,F,L,21,4
ChD_v5_MB,11,7,false,17,1,Correct,0.51981703164769,5,S02,F,L,21,1
ChD_v5_MB,11,7,false,18,1,Correct,0.719730196432502,6,S02,F,L,21,1
ChD_v5_MB,11,7,false,19,0,Correct,0.939633619562373,6,S02,F,L,21,4
ChD_v5_MB,11,7,false,20,0,Correct,0.549804979165492,6,S02,F,L,21,4
ChD_v5_MB,11,7,false,21,0,Correct,0.519816690314328,7,S02,F,L,21,4
ChD_v5_MB,11,7,false,22,1,Correct,0.599780795694824,7,S02,F,L,21,1
ChD_v5_MB,11,7,false,23,1,Wrong,0.949631308735115,6,S02,F,L,21,2
ChD_v5_MB,11,7,false,24,1,Correct,0.689749075581931,5,S02,F,L,21,1
ChD_v5_MB,11,7,false,25,0,Correct,0.839685058503965,7,S02,F,L,21,4
ChD_v5_MB,11,7,false,26,1,Correct,0.589786519855697,5,S02,F,L,21,1
ChD_v5_MB,11,7,false,27,1,Correct,0.7397201134442,7,S02,F,L,21,1
ChD_v5_MB,11,7,false,28,0,Correct,0.469837801788381,7,S02,F,L,21,4
ChD_v5_MB,11,7,false,29,1,Wrong,0.429860698428238,6,S02,F,L,21,2
ChD_v5_MB,11,7,false,30,1,Wrong,0.829681225330714,7,S02,F,L,21,2
ChD_v5_MB,11,7,false,31,1,Wrong,0.419868470592919,6,S02,F,L,21,2
ChD_v5_MB,11,7,false,32,0,Correct,0.499824042635737,6,S02,F,L,21,4
ChD_v5_MB,11,7,false,33,0,Correct,0.419859254588519,7,S02,F,L,21,4
ChD_v5_MB,11,7,false,34,0,Correct,0.599786257028609,6,S02,F,L,21,4
ChD_v5_MB,11,7,false,35,0,Correct,0.4798344669574,5,S02,F,L,21,4
ChD_v5_MB,11,7,false,36,0,Correct,0.409873170753708,5,S02,F,L,21,4
ChD_v5_MB,11,7,false,37,0,Correct,0.419860619921965,5,S02,F,L,21,4
ChD_v5_MB,11,7,false,38,1,Correct,0.549803272498684,7,S02,F,L,21,1
ChD_v5_MB,11,7,false,39,1,Correct,0.499825066635822,7,S02,F,L,21,1
ChD_v5_MB,11,7,false,40,1,Correct,0.659759762730682,7,S02,F,L,21,1
ChD_v5_MB,11,7,false,41,1,Correct,0.599783185028355,6,S02,F,L,21,1
ChD_v5_MB,11,7,false,42,1,Correct,0.599781819694908,6,S02,F,L,21,1
ChD_v5_MB,12,7,true,1,1,Correct,0.469838484451466,5,S02,F,L,21,1
ChD_v5_MB,12,7,true,2,1,Wrong,0.769707378295279,7,S02,F,L,21,2
ChD_v5_MB,12,7,true,3,0,Correct,0.91964267855059,6,S02,F,L,21,4
ChD_v5_MB,12,7,true,4,1,Correct,0.49982472530246,6,S02,F,L,21,1
ChD_v5_MB,12,7,true,5,1,Wrong,0.449847884773044,6,S02,F,L,21,2
ChD_v5_MB,12,7,true,6,0,Correct,0.559798231004534,5,S02,F,L,21,4
ChD_v5_MB,12,7,true,7,0,Correct,0.469839167118189,6,S02,F,L,21,4
ChD_v5_MB,12,7,true,8,1,Correct,0.57979838801708,5,S02,F,L,21,1
ChD_v5_MB,12,7,true,9,1,Wrong,0.91964916388446,6,S02,F,L,21,2
ChD_v5_MB,12,7,true,10,1,Correct,0.529813696820347,7,S02,F,L,21,1
ChD_v5_MB,12,7,true,11,0,Correct,0.74972599461762,5,S02,F,L,21,4
ChD_v5_MB,12,7,true,12,1,Wrong,0.699737890087272,6,S02,F,L,21,2
ChD_v5_MB,12,7,true,13,0,Correct,0.779703019467852,5,S02,F,L,21,4
ChD_v5_MB,12,7,true,14,1,Correct,0.699804054229753,7,S02,F,L,21,1
ChD_v5_MB,12,7,true,15,0,Correct,0.78969763664034,7,S02,F,L,21,4
ChD_v5_MB,12,7,true,16,0,Correct,0.519826247648452,5,S02,F,L,21,4
ChD_v5_MB,12,7,true,17,0,Correct,0.699738231420633,7,S02,F,L,21,4
ChD_v5_MB,12,7,true,18,1,Correct,0.539807972659473,7,S02,F,L,21,1
ChD_v5_MB,12,7,true,19,0,Correct,0.549805320498854,7,S02,F,L,21,4
ChD_v5_MB,12,7,true,20,1,Correct,0.779768896810274,5,S02,F,L,21,1
ChD_v5_MB,12,7,true,21,1,Wrong,0.539808996659558,7,S02,F,L,21,2
ChD_v5_MB,12,7,true,22,1,Wrong,0.549813853832893,6,S02,F,L,21,2
ChD_v5_MB,12,7,true,23,1,Correct,0.61977241937333,6,S02,F,L,21,1
ChD_v5_MB,12,7,true,24,0,Correct,0.699738914087357,5,S02,F,L,21,4
ChD_v5_MB,12,7,true,25,0,Correct,0.659756349397067,7,S02,F,L,21,4
ChD_v5_MB,12,7,true,26,0,Correct,0.499826090635906,5,S02,F,L,21,4
ChD_v5_MB,12,7,true,27,1,Wrong,0.589787543855782,6,S02,F,L,21,2
ChD_v5_MB,12,7,true,28,0,Correct,0.42985694376126,7,S02,F,L,21,4
ChD_v5_MB,12,7,true,29,0,Correct,0.49982677330263,7,S02,F,L,21,4
ChD_v5_MB,12,7,true,30,1,Wrong,0.519819420981221,6,S02,F,L,21,2
ChD_v5_MB,12,7,true,31,1,Wrong,0.509820707808394,5,S02,F,L,21,2
ChD_v5_MB,12,7,true,32,0,Correct,0.409876242750324,6,S02,F,L,21,4
ChD_v5_MB,12,7,true,33,0,Correct,0.869665155354451,7,S02,F,L,21,4
ChD_v5_MB,12,7,true,34,0,Correct,0.949630284735031,6,S02,F,L,21,4
ChD_v5_MB,12,7,true,35,0,Wrong,0.459847963279317,7,S02,F,L,21,3
ChD_v5_MB,12,7,true,36,1,Correct,0.539806948659389,6,S02,F,L,21,1
ChD_v5_MB,12,7,true,37,1,Wrong,0.549803272498684,6,S02,F,L,21,2
ChD_v5_MB,12,7,true,38,1,Correct,0.6897466862484,7,S02,F,L,21,1
ChD_v5_MB,12,7,true,39,0,Correct,0.509819683808309,5,S02,F,L,21,4
ChD_v5_MB,12,7,true,40,0,Correct,0.739721137444285,5,S02,F,L,21,4
ChD_v5_MB,12,7,true,41,1,Correct,0.549812488499447,5,S02,F,L,21,1
ChD_v5_MB,12,7,true,42,0,Correct,0.429865135765576,5,S02,F,L,21,4
ChD_v5_MB,13,4,true,1,0,Correct,0.769713522295788,7,S02,F,L,21,4
ChD_v5_MB,13,4,true,2,1,Wrong,0.429856261094537,7,S02,F,L,21,2
ChD_v5_MB,13,4,true,3,0,Wrong,0.669751649236277,7,S02,F,L,21,3
ChD_v5_MB,13,4,true,4,0,Correct,0.449847543439682,7,S02,F,L,21,4
ChD_v5_MB,13,4,true,5,0,Correct,0.489832838796865,5,S02,F,L,21,4
ChD_v5_MB,13,4,true,6,1,Wrong,0.469902552790736,6,S02,F,L,21,2
ChD_v5_MB,13,4,true,7,0,Correct,0.499824042635737,7,S02,F,L,21,4
ChD_v5_MB,13,4,true,8,1,Correct,0.51981976231822,6,S02,F,L,21,1
ChD_v5_MB,13,4,true,9,0,Correct,0.529820182154217,7,S02,F,L,21,4
ChD_v5_MB,13,4,true,10,0,Correct,0.479833784290677,5,S02,F,L,21,4
ChD_v5_MB,13,4,true,11,1,Correct,0.439851560933748,7,S02,F,L,21,1
ChD_v5_MB,13,4,true,12,0,Correct,0.429854895761091,5,S02,F,L,21,4
ChD_v5_MB,13,4,true,13,1,Correct,0.639764384385198,6,S02,F,L,21,1
ChD_v5_MB,13,4,true,14,1,Correct,0.549802589831961,7,S02,F,L,21,1
ChD_v5_MB,13,4,true,15,1,Wrong,0.449847884773044,6,S02,F,L,21,2
ChD_v5_MB,13,4,true,16,1,Wrong,0.409863613415946,5,S02,F,L,21,2
ChD_v5_MB,13,4,true,17,0,Correct,0.439859411601064,5,S02,F,L,21,4
ChD_v5_MB,13,4,true,18,0,Correct,0.489833180130227,7,S02,F,L,21,4
ChD_v5_MB,13,4,true,19,1,Correct,0.569795237510552,6,S02,F,L,21,1
ChD_v5_MB,13,4,true,20,1,Wrong,0.819686608158227,6,S02,F,L,21,2
ChD_v5_MB,13,4,true,21,0,Correct,0.429865135761938,6,S02,F,L,21,4
ChD_v5_MB,13,4,true,22,1,Correct,0.629769084545987,5,S02,F,L,21,1
ChD_v5_MB,13,4,true,23,1,Correct,0.81968524282478,5,S02,F,L,21,1
ChD_v5_MB,13,4,true,24,0,Correct,0.569795920180914,5,S02,F,L,21,4
ChD_v5_MB,13,4,true,25,0,Wrong,1.04958464846059,7,S02,F,L,21,3
ChD_v5_MB,13,4,true,26,1,Wrong,0.409863272082584,6,S02,F,L,21,2
ChD_v5_MB,13,4,true,27,0,Correct,0.519819079647859,7,S02,F,L,21,4
ChD_v5_MB,13,4,true,28,0,Correct,0.459841819278809,6,S02,F,L,21,4
ChD_v5_MB,13,4,true,29,1,Wrong,0.529819499487494,7,S02,F,L,21,2
ChD_v5_MB,13,4,true,30,1,Correct,0.819686608158227,7,S02,F,L,21,1
ChD_v5_MB,13,4,true,31,1,Correct,0.569793872177106,5,S02,F,L,21,1
ChD_v5_MB,13,4,true,32,1,Correct,0.659758738730598,5,S02,F,L,21,1
ChD_v5_MB,13,4,true,33,1,Correct,0.55979959633798,5,S02,F,L,21,1
ChD_v5_MB,13,4,true,34,0,Correct,0.429870255766,5,S02,F,L,21,4
ChD_v5_MB,13,4,true,35,0,Correct,0.509820707808394,5,S02,F,L,21,4
ChD_v5_MB,13,4,true,36,0,Correct,0.539807631326112,5,S02,F,L,21,4
ChD_v5_MB,13,4,true,37,0,Correct,0.499825407969183,6,S02,F,L,21,4
ChD_v5_MB,13,4,true,38,0,Wrong,0.53980728999275,6,S02,F,L,21,3
ChD_v5_MB,13,4,true,39,0,Correct,0.56979694417736,6,S02,F,L,21,4
ChD_v5_MB,13,4,true,40,1,Correct,0.469838484451466,6,S02,F,L,21,1
ChD_v5_MB,13,4,true,41,1,Correct,0.809690284318931,6,S02,F,L,21,1
ChD_v5_MB,13,4,true,42,1,Correct,0.60977950886765,7,S02,F,L,21,1
ChD_v5_MB,14,0,true,1,0,Correct,0.559797207004449,7,S02,F,L,21,4
ChD_v5_MB,14,0,true,2,1,Wrong,0.339895149208023,5,S02,F,L,21,2
ChD_v5_MB,14,0,true,3,1,Correct,0.439849512933579,5,S02,F,L,21,1
ChD_v5_MB,14,0,true,4,1,Correct,0.50982207314184,5,S02,F,L,21,1
ChD_v5_MB,14,0,true,5,0,Wrong,0.719730537765863,6,S02,F,L,21,3
ChD_v5_MB,14,0,true,6,1,Correct,0.759711395789345,6,S02,F,L,21,1
ChD_v5_MB,14,0,true,7,0,Correct,0.389875061737694,6,S02,F,L,21,4
ChD_v5_MB,14,0,true,8,0,Correct,0.499839402637008,6,S02,F,L,21,4
ChD_v5_MB,14,0,true,9,0,Correct,0.409864978749392,5,S02,F,L,21,4
ChD_v5_MB,14,0,true,10,1,Correct,0.479835490961123,6,S02,F,L,21,1
ChD_v5_MB,14,0,true,11,1,Correct,0.609779167534289,6,S02,F,L,21,1
ChD_v5_MB,14,0,true,12,1,Correct,0.89965242020553,5,S02,F,L,21,1
ChD_v5_MB,14,0,true,13,1,Correct,1.15953909069241,7,S02,F,L,21,1
ChD_v5_MB,14,0,true,14,0,Correct,0.629769084545987,6,S02,F,L,21,4
ChD_v5_MB,14,0,true,15,1,Wrong,0.419860619921965,7,S02,F,L,21,2
ChD_v5_MB,14,0,true,16,1,Wrong,0.469837119118019,5,S02,F,L,21,2
ChD_v5_MB,14,0,true,17,1,Correct,0.439852926267195,6,S02,F,L,21,1
ChD_v5_MB,14,0,true,18,0,Correct,0.38987642707114,6,S02,F,L,21,4
ChD_v5_MB,14,0,true,19,0,Correct,0.429858650428068,7,S02,F,L,21,4
ChD_v5_MB,14,0,true,20,0,Correct,0.449848226106405,5,S02,F,L,21,4
ChD_v5_MB,14,0,true,21,1,Correct,0.419860961255326,5,S02,F,L,21,1
ChD_v5_MB,14,0,true,22,1,Wrong,0.379882833898737,5,S02,F,L,21,2
ChD_v5_MB,14,0,true,23,0,Wrong,0.659774440068868,7,S02,F,L,21,3
ChD_v5_MB,14,0,true,24,1,Wrong,0.459845915279147,6,S02,F,L,21,2
ChD_v5_MB,14,0,true,25,1,Correct,0.529812672820262,7,S02,F,L,21,1
ChD_v5_MB,14,0,true,26,0,Correct,0.459847280612594,5,S02,F,L,21,4
ChD_v5_MB,14,0,true,27,0,Correct,0.689743272914784,5,S02,F,L,21,4
ChD_v5_MB,14,0,true,28,0,Correct,0.779702336801129,7,S02,F,L,21,4
ChD_v5_MB,14,0,true,29,0,Correct,0.369882072725741,5,S02,F,L,21,4
ChD_v5_MB,14,0,true,30,1,Wrong,0.879659431193577,7,S02,F,L,21,2
ChD_v5_MB,14,0,true,31,1,Correct,0.44984925010649,5,S02,F,L,21,1
ChD_v5_MB,14,0,true,32,0,Correct,0.569796261510637,7,S02,F,L,21,4
ChD_v5_MB,14,0,true,33,1,Correct,0.579791220016486,6,S02,F,L,21,1
ChD_v5_MB,14,0,true,34,0,Correct,0.569794554843829,5,S02,F,L,21,4
ChD_v5_MB,14,0,true,35,0,Correct,0.509821049141756,7,S02,F,L,21,4
ChD_v5_MB,14,0,true,36,0,Wrong,0.589787885189144,7,S02,F,L,21,3
ChD_v5_MB,14,0,true,37,1,Wrong,0.699738572753995,7,S02,F,L,21,2
ChD_v5_MB,14,0,true,38,0,Wrong,0.599781819694908,7,S02,F,L,21,3
ChD_v5_MB,14,0,true,39,1,Correct,0.779711894135253,6,S02,F,L,21,1
ChD_v5_MB,14,0,true,40,1,Correct,0.579790878683125,6,S02,F,L,21,1
ChD_v5_MB,14,0,true,41,0,Correct,0.569802405511145,6,S02,F,L,21,4
ChD_v5_MB,14,0,true,42,0,Correct,0.579790196016402,7,S02,F,L,21,4
ChD_v5_MB,15,4,false,1,1,Correct,0.629768060545903,6,S02,F,L,21,1
ChD_v5_MB,15,4,false,2,1,Correct,0.789700025973871,7,S02,F,L,21,1
ChD_v5_MB,15,4,false,3,0,Correct,0.69973754875391,5,S02,F,L,21,4
ChD_v5_MB,15,4,false,4,1,Wrong,0.499825066635822,6,S02,F,L,21,2
ChD_v5_MB,15,4,false,5,0,Correct,0.449848226106405,5,S02,F,L,21,4
ChD_v5_MB,15,4,false,6,0,Correct,0.49982472530246,6,S02,F,L,21,4
ChD_v5_MB,15,4,false,7,0,Correct,0.599783185028355,6,S02,F,L,21,4
ChD_v5_MB,15,4,false,8,0,Correct,0.589785837188974,7,S02,F,L,21,4
ChD_v5_MB,15,4,false,9,0,Wrong,0.469923858861002,6,S02,F,L,21,3
ChD_v5_MB,15,4,false,10,1,Correct,0.709733872593206,5,S02,F,L,21,1
ChD_v5_MB,15,4,false,11,0,Correct,0.629773180546326,5,S02,F,L,21,4
ChD_v5_MB,15,4,false,12,0,Correct,1.09956729165715,5,S02,F,L,21,4
ChD_v5_MB,15,4,false,13,0,Correct,0.459847963279317,7,S02,F,L,21,4
ChD_v5_MB,15,4,false,14,0,Correct,0.62983559002183,7,S02,F,L,21,4
ChD_v5_MB,15,4,false,15,1,Wrong,0.509821049145394,5,S02,F,L,21,2
ChD_v5_MB,15,4,false,16,1,Wrong,0.509821049141756,6,S02,F,L,21,2
ChD_v5_MB,15,4,false,17,1,Correct,0.729725837605074,5,S02,F,L,21,1
ChD_v5_MB,15,4,false,18,1,Correct,0.579791220016486,7,S02,F,L,21,1
ChD_v5_MB,15,4,false,19,0,Correct,0.489830790796696,6,S02,F,L,21,4
ChD_v5_MB,15,4,false,20,0,Correct,0.489830449463334,5,S02,F,L,21,4
ChD_v5_MB,15,4,false,21,0,Correct,0.659754642730259,7,S02,F,L,21,4
ChD_v5_MB,15,4,false,22,0,Wrong,0.79969498447972,6,S02,F,L,21,3
ChD_v5_MB,15,4,false,23,1,Correct,0.789701049973955,6,S02,F,L,21,1
ChD_v5_MB,15,4,false,24,1,Correct,0.709734896593291,7,S02,F,L,21,1
ChD_v5_MB,15,4,false,25,1,Correct,0.589785495855613,5,S02,F,L,21,1
ChD_v5_MB,15,4,false,26,1,Correct,0.719728831099055,6,S02,F,L,21,1
ChD_v5_MB,15,4,false,27,1,Correct,0.579790196016402,5,S02,F,L,21,1
ChD_v5_MB,15,4,false,28,0,Correct,0.479833784294315,6,S02,F,L,21,4
ChD_v5_MB,15,4,false,29,1,Correct,0.679757189079974,6,S02,F,L,21,1
ChD_v5_MB,15,4,false,30,1,Correct,0.729724472271628,6,S02,F,L,21,1
ChD_v5_MB,15,4,false,31,1,Correct,0.569794896177191,5,S02,F,L,21,1
ChD_v5_MB,15,4,false,32,0,Correct,0.389872672404163,7,S02,F,L,21,4
ChD_v5_MB,15,4,false,33,0,Correct,0.459842501945532,7,S02,F,L,21,4
ChD_v5_MB,15,4,false,34,1,Correct,0.789699343310786,6,S02,F,L,21,1
ChD_v5_MB,15,4,false,35,0,Correct,0.709734896593291,7,S02,F,L,21,4
ChD_v5_MB,15,4,false,36,0,Correct,0.619776174040307,5,S02,F,L,21,4
ChD_v5_MB,15,4,false,37,0,Correct,0.499827114635991,7,S02,F,L,21,4
ChD_v5_MB,15,4,false,38,1,Correct,0.629768401879264,7,S02,F,L,21,1
ChD_v5_MB,15,4,false,39,1,Wrong,0.759717881123215,5,S02,F,L,21,2
ChD_v5_MB,15,4,false,40,1,Correct,0.689742248914699,7,S02,F,L,21,1
ChD_v5_MB,15,4,false,41,0,Correct,0.399868654910097,5,S02,F,L,21,4
ChD_v5_MB,15,4,false,42,1,Wrong,0.669751307902916,7,S02,F,L,21,2
ChD_v5_MB,1,0,true,1,1,Wrong,0.949697015414131,6,S03,F,R,21,2
ChD_v5_MB,1,0,true,2,1,Wrong,1.39953380685256,7,S03,F,R,21,2
ChD_v5_MB,1,0,true,3,0,Correct,0.949697698080854,5,S03,F,R,21,4
ChD_v5_MB,1,0,true,4,0,Correct,0.909711583523313,6,S03,F,R,21,4
ChD_v5_MB,1,0,true,5,0,Wrong,1.18961199609257,7,S03,F,R,21,3
ChD_v5_MB,1,0,true,6,1,Correct,1.3095676090983,7,S03,F,R,21,1
ChD_v5_MB,1,0,true,7,0,Correct,0.679796032817831,5,S03,F,R,21,4
ChD_v5_MB,1,0,true,8,0,Correct,0.74977224529357,6,S03,F,R,21,4
ChD_v5_MB,1,0,true,9,1,Correct,0.999689045278501,5,S03,F,R,21,1
ChD_v5_MB,1,0,true,10,0,Correct,0.809758243800752,7,S03,F,R,21,4
ChD_v5_MB,1,0,true,11,1,Correct,0.939704753441765,6,S03,F,R,21,1
ChD_v5_MB,1,0,true,12,1,Wrong,1.29956988579215,6,S03,F,R,21,2
ChD_v5_MB,1,0,true,13,1,Correct,0.979692574666114,6,S03,F,R,21,1
ChD_v5_MB,1,0,true,14,1,Correct,0.729776798681269,5,S03,F,R,21,1
ChD_v5_MB,1,0,true,15,0,Wrong,1.3195755724053,6,S03,F,R,21,3
ChD_v5_MB,1,0,true,16,0,Correct,1.19960698873547,5,S03,F,R,21,4
ChD_v5_MB,1,0,true,17,0,Correct,1.28959298382106,5,S03,F,R,21,4
ChD_v5_MB,1,0,true,18,0,Wrong,1.05965729444724,5,S03,F,R,21,3
ChD_v5_MB,1,0,true,19,0,Correct,0.91970862416274,5,S03,F,R,21,4
ChD_v5_MB,1,0,true,20,0,Correct,0.839742197714804,7,S03,F,R,21,4
ChD_v5_MB,1,0,true,21,1,Wrong,0.649811396233417,5,S03,F,R,21,2
ChD_v5_MB,1,0,true,22,1,Correct,0.85972774565962,6,S03,F,R,21,1
ChD_v5_MB,1,0,true,23,0,Correct,1.10963976697749,7,S03,F,R,21,4
ChD_v5_MB,1,0,true,24,1,Correct,0.899716932217416,5,S03,F,R,21,1
ChD_v5_MB,1,0,true,25,1,Correct,1.0096765285838,5,S03,F,R,21,1
ChD_v5_MB,1,0,true,26,1,Correct,0.709789885406644,5,S03,F,R,21,1
ChD_v5_MB,1,0,true,27,0,Correct,1.57946756769452,6,S03,F,R,21,4
ChD_v5_MB,1,0,true,28,1,Correct,1.11964704761776,7,S03,F,R,21,1
ChD_v5_MB,1,0,true,29,0,Timeout,NaN,5,S03,F,R,21,0
ChD_v5_MB,1,0,true,30,1,Correct,0.899716249554331,5,S03,F,R,21,1
ChD_v5_MB,1,0,true,31,1,Wrong,0.829740037074953,6,S03,F,R,21,2
ChD_v5_MB,1,0,true,32,0,Correct,0.88972467024505,7,S03,F,R,21,4
ChD_v5_MB,1,0,true,33,1,Wrong,1.13963157156613,7,S03,F,R,21,2
ChD_v5_MB,1,0,true,34,0,Correct,0.909711924856674,7,S03,F,R,21,4
ChD_v5_MB,1,0,true,35,1,Correct,0.749777365293994,7,S03,F,R,21,1
ChD_v5_MB,1,0,true,36,0,Correct,0.829746863742184,6,S03,F,R,21,4
ChD_v5_MB,1,0,true,37,1,Wrong,0.819749140439671,6,S03,F,R,21,2
ChD_v5_MB,1,0,true,38,0,Correct,0.799751987156924,6,S03,F,R,21,4
ChD_v5_MB,1,0,true,39,0,Correct,0.669798650848679,7,S03,F,R,21,4
ChD_v5_MB,1,0,true,40,1,Wrong,0.73977895932112,7,S03,F,R,21,2
ChD_v5_MB,1,0,true,41,1,Correct,0.859743788327614,6,S03,F,R,21,1
ChD_v5_MB,1,0,true,42,0,Correct,1.44951730338289,7,S03,F,R,21,4
ChD_v5_MB,2,7,true,1,1,Correct,0.869727516965941,7,S03,F,R,21,1
ChD_v5_MB,2,7,true,2,1,Correct,0.929704982135445,6,S03,F,R,21,1
ChD_v5_MB,2,7,true,3,1,Correct,0.71988011005742,5,S03,F,R,21,1
ChD_v5_MB,2,7,true,4,0,Correct,0.72977714001463,6,S03,F,R,21,4
ChD_v5_MB,2,7,true,5,1,Correct,0.839738443047827,6,S03,F,R,21,1
ChD_v5_MB,2,7,true,6,0,Correct,1.22959572131658,7,S03,F,R,21,4
ChD_v5_MB,2,7,true,7,0,Correct,0.869726151632494,5,S03,F,R,21,4
ChD_v5_MB,2,7,true,8,0,Correct,0.869725810299133,7,S03,F,R,21,4
ChD_v5_MB,2,7,true,9,1,Correct,0.799753011157009,7,S03,F,R,21,1
ChD_v5_MB,2,7,true,10,0,Correct,0.819744703102333,6,S03,F,R,21,4
ChD_v5_MB,2,7,true,11,0,Correct,0.749772927963932,7,S03,F,R,21,4
ChD_v5_MB,2,7,true,12,0,Correct,0.859730134993151,5,S03,F,R,21,4
ChD_v5_MB,2,7,true,13,0,Correct,0.709784424069221,6,S03,F,R,21,4
ChD_v5_MB,2,7,true,14,1,Correct,0.729781577348331,6,S03,F,R,21,1
ChD_v5_MB,2,7,true,15,1,Wrong,1.02966685519568,6,S03,F,R,21,2
ChD_v5_MB,2,7,true,16,1,Correct,0.809748003796267,5,S03,F,R,21,1
ChD_v5_MB,2,7,true,17,1,Correct,0.849733777020447,5,S03,F,R,21,1
ChD_v5_MB,2,7,true,18,1,Correct,0.88974241958349,7,S03,F,R,21,1
ChD_v5_MB,2,7,true,19,1,Correct,0.759766896599467,5,S03,F,R,21,1
ChD_v5_MB,2,7,true,20,1,Wrong,0.779758929878153,7,S03,F,R,21,2
ChD_v5_MB,2,7,true,21,1,Correct,0.879724216272007,7,S03,F,R,21,1
ChD_v5_MB,2,7,true,22,0,Correct,1.06965467642003,7,S03,F,R,21,4
ChD_v5_MB,2,7,true,23,1,Correct,0.879727629605622,5,S03,F,R,21,1
ChD_v5_MB,2,7,true,24,0,Correct,1.07965205839282,7,S03,F,R,21,4
ChD_v5_MB,2,7,true,25,1,Correct,1.15962121550765,6,S03,F,R,21,1
ChD_v5_MB,2,7,true,26,0,Wrong,1.37954109091079,6,S03,F,R,21,3
ChD_v5_MB,2,7,true,27,0,Correct,1.96932552863,7,S03,F,R,21,4
ChD_v5_MB,2,7,true,28,0,Correct,0.739775545987504,7,S03,F,R,21,4
ChD_v5_MB,2,7,true,29,0,Correct,0.679795350151107,6,S03,F,R,21,4
ChD_v5_MB,2,7,true,30,0,Correct,0.739773156653973,5,S03,F,R,21,4
ChD_v5_MB,2,7,true,31,1,Correct,0.719781123375287,7,S03,F,R,21,1
ChD_v5_MB,2,7,true,32,1,Correct,0.789757335851027,7,S03,F,R,21,1
ChD_v5_MB,2,7,true,33,0,Correct,0.759772699270252,5,S03,F,R,21,4
ChD_v5_MB,2,7,true,34,0,Correct,0.96968973135954,5,S03,F,R,21,4
ChD_v5_MB,2,7,true,35,0,Correct,0.589827787063405,5,S03,F,R,21,4
ChD_v5_MB,2,7,true,36,0,Correct,0.639880572188849,6,S03,F,R,21,4
ChD_v5_MB,2,7,true,37,1,Correct,0.649808324233163,5,S03,F,R,21,1
ChD_v5_MB,2,7,true,38,1,Wrong,0.809758585134114,6,S03,F,R,21,2
ChD_v5_MB,2,7,true,39,1,Correct,1.11963646628355,6,S03,F,R,21,1
ChD_v5_MB,2,7,true,40,1,Correct,1.02966822052913,5,S03,F,R,21,1
ChD_v5_MB,2,7,true,41,0,Wrong,0.859730817659874,6,S03,F,R,21,3
ChD_v5_MB,2,7,true,42,0,Correct,0.71978385404218,5,S03,F,R,21,4
ChD_v5_MB,3,7,true,1,0,Correct,0.97969598799973,7,S03,F,R,21,4
ChD_v5_MB,3,7,true,2,0,Correct,0.769763595905533,5,S03,F,R,21,4
ChD_v5_MB,3,7,true,3,1,Wrong,1.84937196362444,6,S03,F,R,21,2
ChD_v5_MB,3,7,true,4,0,Correct,0.85972979365979,6,S03,F,R,21,4
ChD_v5_MB,3,7,true,5,1,Correct,0.699794210097025,7,S03,F,R,21,1
ChD_v5_MB,3,7,true,6,1,Correct,0.729776798681269,6,S03,F,R,21,1
ChD_v5_MB,3,7,true,7,0,Correct,0.829740719741676,7,S03,F,R,21,4
ChD_v5_MB,3,7,true,8,1,Correct,1.24960584526343,5,S03,F,R,21,1
ChD_v5_MB,3,7,true,9,1,Wrong,1.35955076429527,5,S03,F,R,21,2
ChD_v5_MB,3,7,true,10,0,Correct,0.91970862416274,7,S03,F,R,21,4
ChD_v5_MB,3,7,true,11,0,Correct,0.809750734463159,5,S03,F,R,21,4
ChD_v5_MB,3,7,true,12,1,Correct,0.839736053714296,5,S03,F,R,21,1
ChD_v5_MB,3,7,true,13,0,Correct,0.96968973135954,5,S03,F,R,21,4
ChD_v5_MB,3,7,true,14,1,Correct,0.789755287850858,5,S03,F,R,21,1
ChD_v5_MB,3,7,true,15,0,Correct,0.769762571905449,6,S03,F,R,21,4
ChD_v5_MB,3,7,true,16,1,Correct,0.939699974774703,7,S03,F,R,21,1
ChD_v5_MB,3,7,true,17,0,Correct,0.939702364108234,7,S03,F,R,21,4
ChD_v5_MB,3,7,true,18,0,Correct,0.629813560287585,7,S03,F,R,21,4
ChD_v5_MB,3,7,true,19,1,Correct,0.71978180604201,6,S03,F,R,21,1
ChD_v5_MB,3,7,true,20,1,Correct,0.729778846681438,6,S03,F,R,21,1
ChD_v5_MB,3,7,true,21,0,Correct,0.679796032817831,5,S03,F,R,21,4
ChD_v5_MB,3,7,true,22,1,Correct,1.30956931576875,7,S03,F,R,21,1
ChD_v5_MB,3,7,true,23,0,Correct,0.789756653184304,6,S03,F,R,21,4
ChD_v5_MB,3,7,true,24,1,Correct,0.709783400069136,5,S03,F,R,21,1
ChD_v5_MB,3,7,true,25,0,Correct,1.22959435598314,5,S03,F,R,21,4
ChD_v5_MB,3,7,true,26,1,Wrong,1.08964568569863,7,S03,F,R,21,2
ChD_v5_MB,3,7,true,27,0,Correct,0.759768944599637,6,S03,F,R,21,4
ChD_v5_MB,3,7,true,28,1,Correct,1.06965160441978,5,S03,F,R,21,1
ChD_v5_MB,3,7,true,29,1,Wrong,1.18961677476327,5,S03,F,R,21,2
ChD_v5_MB,3,7,true,30,0,Correct,1.02966822052913,6,S03,F,R,21,4
ChD_v5_MB,3,7,true,31,1,Correct,1.85936763893042,7,S03,F,R,21,1
ChD_v5_MB,3,7,true,32,0,Correct,0.579831087757338,6,S03,F,R,21,4
ChD_v5_MB,3,7,true,33,1,Correct,0.729777481347992,6,S03,F,R,21,1
ChD_v5_MB,3,7,true,34,0,Correct,0.729777822681353,7,S03,F,R,21,4
ChD_v5_MB,3,7,true,35,0,Correct,0.659805706205952,6,S03,F,R,21,4
ChD_v5_MB,3,7,true,36,0,Correct,0.699789090096601,6,S03,F,R,21,4
ChD_v5_MB,3,7,true,37,0,Correct,0.689804678791552,7,S03,F,R,21,4
ChD_v5_MB,3,7,true,38,1,Wrong,0.899716932217416,7,S03,F,R,21,2
ChD_v5_MB,3,7,true,39,1,Correct,1.55947485174911,7,S03,F,R,21,1
ChD_v5_MB,3,7,true,40,1,Wrong,0.879724557605368,5,S03,F,R,21,2
ChD_v5_MB,3,7,true,41,0,Correct,1.36954507426781,6,S03,F,R,21,4
ChD_v5_MB,3,7,true,42,1,Correct,1.20960266403781,5,S03,F,R,21,1
ChD_v5_MB,4,4,true,1,1,Correct,1.12963214158954,5,S03,F,R,21,1
ChD_v5_MB,4,4,true,2,1,Correct,0.909716362190375,6,S03,F,R,21,1
ChD_v5_MB,4,4,true,3,0,Correct,0.599827558369725,6,S03,F,R,21,4
ChD_v5_MB,4,4,true,4,1,Wrong,1.66943581344894,6,S03,F,R,21,2
ChD_v5_MB,4,4,true,5,1,Wrong,1.89935238815451,6,S03,F,R,21,2
ChD_v5_MB,4,4,true,6,0,Correct,0.749769514626678,5,S03,F,R,21,4
ChD_v5_MB,4,4,true,7,1,Correct,0.59982653436964,5,S03,F,R,21,1
ChD_v5_MB,4,4,true,8,1,Correct,1.32961761850238,6,S03,F,R,21,1
ChD_v5_MB,4,4,true,9,0,Correct,0.709791250736453,6,S03,F,R,21,4
ChD_v5_MB,4,4,true,10,0,Correct,0.659802292872337,7,S03,F,R,21,4
ChD_v5_MB,4,4,true,11,1,Wrong,0.849733094353724,7,S03,F,R,21,2
ChD_v5_MB,4,4,true,12,1,Wrong,1.26958081187404,7,S03,F,R,21,2
ChD_v5_MB,4,4,true,13,0,Correct,0.569834729784634,6,S03,F,R,21,4
ChD_v5_MB,4,4,true,14,0,Correct,0.639810259597289,5,S03,F,R,21,4
ChD_v5_MB,4,4,true,15,1,Correct,0.799751304493839,7,S03,F,R,21,1
ChD_v5_MB,4,4,true,16,1,Wrong,1.20960676004179,7,S03,F,R,21,2
ChD_v5_MB,4,4,true,17,0,Correct,0.92970600613553,5,S03,F,R,21,4
ChD_v5_MB,4,4,true,18,0,Correct,0.889718867577903,7,S03,F,R,21,4
ChD_v5_MB,4,4,true,19,1,Correct,0.779757905878068,5,S03,F,R,21,1
ChD_v5_MB,4,4,true,20,0,Correct,1.11963714895028,6,S03,F,R,21,4
ChD_v5_MB,4,4,true,21,0,Correct,0.629812877620861,5,S03,F,R,21,4
ChD_v5_MB,4,4,true,22,1,Wrong,0.789757335851027,6,S03,F,R,21,2
ChD_v5_MB,4,4,true,23,0,Correct,0.699789431429963,5,S03,F,R,21,4
ChD_v5_MB,4,4,true,24,0,Correct,0.709785106735944,5,S03,F,R,21,4
ChD_v5_MB,4,4,true,25,1,Wrong,1.42952492877084,7,S03,F,R,21,2
ChD_v5_MB,4,4,true,26,1,Correct,0.65980297553906,6,S03,F,R,21,1
ChD_v5_MB,4,4,true,27,1,Correct,1.01967425189359,5,S03,F,R,21,1
ChD_v5_MB,4,4,true,28,1,Wrong,0.889722280911519,7,S03,F,R,21,2
ChD_v5_MB,4,4,true,29,1,Correct,0.699788407429878,6,S03,F,R,21,1
ChD_v5_MB,4,4,true,30,0,Wrong,2.02930401779959,5,S03,F,R,21,3
ChD_v5_MB,4,4,true,31,0,Correct,1.64944207350345,7,S03,F,R,21,4
ChD_v5_MB,4,4,true,32,0,Correct,0.899717956217501,5,S03,F,R,21,4
ChD_v5_MB,4,4,true,33,0,Correct,0.769769739906042,6,S03,F,R,21,4
ChD_v5_MB,4,4,true,34,0,Correct,0.659802634205698,5,S03,F,R,21,4
ChD_v5_MB,4,4,true,35,1,Correct,0.729783284015139,7,S03,F,R,21,1
ChD_v5_MB,4,4,true,36,1,Wrong,1.20960266403781,6,S03,F,R,21,2
ChD_v5_MB,4,4,true,37,0,Correct,0.709784424069221,7,S03,F,R,21,4
ChD_v5_MB,4,4,true,38,1,Correct,0.709785106735944,7,S03,F,R,21,1
ChD_v5_MB,4,4,true,39,0,Correct,0.759767920599552,5,S03,F,R,21,4
ChD_v5_MB,4,4,true,40,0,Correct,0.669799333515402,6,S03,F,R,21,4
ChD_v5_MB,4,4,true,41,1,Correct,0.549842696505948,7,S03,F,R,21,1
ChD_v5_MB,4,4,true,42,0,Correct,0.879736504273023,7,S03,F,R,21,4
ChD_v5_MB,5,0,true,1,1,Wrong,1.53948315980379,6,S03,F,R,21,2
ChD_v5_MB,5,0,true,2,0,Correct,0.61981720231488,6,S03,F,R,21,4
ChD_v5_MB,5,0,true,3,1,Wrong,1.78939006112123,7,S03,F,R,21,2
ChD_v5_MB,5,0,true,4,1,Correct,0.89971556688397,6,S03,F,R,21,1
ChD_v5_MB,5,0,true,5,0,Correct,0.73977452198742,5,S03,F,R,21,4
ChD_v5_MB,5,0,true,6,0,Correct,0.679797398151277,5,S03,F,R,21,4
ChD_v5_MB,5,0,true,7,0,Wrong,1.56947359905535,5,S03,F,R,21,3
ChD_v5_MB,5,0,true,8,1,Correct,0.819745044435695,6,S03,F,R,21,1
ChD_v5_MB,5,0,true,9,0,Correct,0.789755970517581,7,S03,F,R,21,4
ChD_v5_MB,5,0,true,10,1,Correct,0.769763595905533,6,S03,F,R,21,1
ChD_v5_MB,5,0,true,11,1,Correct,0.699787383429793,5,S03,F,R,21,1
ChD_v5_MB,5,0,true,12,1,Wrong,1.32956681037758,7,S03,F,R,21,2
ChD_v5_MB,5,0,true,13,0,Correct,0.699789772766962,6,S03,F,R,21,4
ChD_v5_MB,5,0,true,14,1,Correct,0.689791025457089,7,S03,F,R,21,1
ChD_v5_MB,5,0,true,15,1,Wrong,0.749770879960124,5,S03,F,R,21,2
ChD_v5_MB,5,0,true,16,1,Wrong,0.929720390601869,6,S03,F,R,21,2
ChD_v5_MB,5,0,true,17,0,Correct,1.52949123916478,6,S03,F,R,21,4
ChD_v5_MB,5,0,true,18,1,Correct,1.8693633142364,7,S03,F,R,21,1
ChD_v5_MB,5,0,true,19,0,Correct,1.06965501775339,5,S03,F,R,21,4
ChD_v5_MB,5,0,true,20,0,Correct,0.959695762720366,5,S03,F,R,21,4
ChD_v5_MB,5,0,true,21,0,Correct,0.589829493730213,5,S03,F,R,21,4
ChD_v5_MB,5,0,true,22,1,Correct,0.919707941496017,6,S03,F,R,21,1
ChD_v5_MB,5,0,true,23,1,Correct,0.829741061075038,5,S03,F,R,21,1
ChD_v5_MB,5,0,true,24,0,Correct,0.729785332015308,7,S03,F,R,21,4
ChD_v5_MB,5,0,true,25,1,Correct,1.68942648139418,6,S03,F,R,21,1
ChD_v5_MB,5,0,true,26,0,Correct,0.769763937238895,7,S03,F,R,21,4
ChD_v5_MB,5,0,true,27,0,Wrong,0.96969416869324,5,S03,F,R,21,3
ChD_v5_MB,5,0,true,28,1,Correct,1.35954769229502,6,S03,F,R,21,1
ChD_v5_MB,5,0,true,29,1,Correct,0.92971522213993,5,S03,F,R,21,1
ChD_v5_MB,5,0,true,30,1,Correct,0.879721485605114,7,S03,F,R,21,1
ChD_v5_MB,5,0,true,31,0,Correct,0.729777822681353,7,S03,F,R,21,4
ChD_v5_MB,5,0,true,32,0,Correct,0.839736053717934,6,S03,F,R,21,4
ChD_v5_MB,5,0,true,33,0,Correct,0.959695080053643,7,S03,F,R,21,4
ChD_v5_MB,5,0,true,34,1,Correct,0.72977714001463,7,S03,F,R,21,1
ChD_v5_MB,5,0,true,35,0,Correct,0.839736736381019,5,S03,F,R,21,4
ChD_v5_MB,5,0,true,36,1,Correct,0.719782147375372,7,S03,F,R,21,1
ChD_v5_MB,5,0,true,37,1,Wrong,0.729777822684991,7,S03,F,R,21,2
ChD_v5_MB,5,0,true,38,0,Correct,1.72941532661862,6,S03,F,R,21,4
ChD_v5_MB,5,0,true,39,0,Correct,0.599824486369471,5,S03,F,R,21,4
ChD_v5_MB,5,0,true,40,1,Correct,0.769765643905703,7,S03,F,R,21,1
ChD_v5_MB,5,0,true,41,0,Correct,0.809754489130137,6,S03,F,R,21,4
ChD_v5_MB,5,0,true,42,0,Wrong,1.61945231691861,5,S03,F,R,21,3
ChD_v5_MB,6,4,true,1,1,Correct,1.91934646943337,7,S03,F,R,21,1
ChD_v5_MB,6,4,true,2,1,Wrong,0.859733548330405,7,S03,F,R,21,2
ChD_v5_MB,6,4,true,3,0,Correct,0.699789431429963,7,S03,F,R,21,4
ChD_v5_MB,6,4,true,4,1,Correct,0.909711242189951,5,S03,F,R,21,1
ChD_v5_MB,6,4,true,5,0,Correct,0.75976757926619,5,S03,F,R,21,4
ChD_v5_MB,6,4,true,6,0,Correct,0.699789090100239,6,S03,F,R,21,4
ChD_v5_MB,6,4,true,7,0,Correct,1.18961336142602,6,S03,F,R,21,4
ChD_v5_MB,6,4,true,8,0,Correct,0.669799333515402,6,S03,F,R,21,4
ChD_v5_MB,6,4,true,9,1,Correct,0.939700316108065,6,S03,F,R,21,1
ChD_v5_MB,6,4,true,10,1,Correct,0.839737760381104,5,S03,F,R,21,1
ChD_v5_MB,6,4,true,11,0,Correct,0.869726151632494,5,S03,F,R,21,4
ChD_v5_MB,6,4,true,12,0,Correct,0.749769173293316,5,S03,F,R,21,4
ChD_v5_MB,6,4,true,13,1,Correct,0.819745385769056,6,S03,F,R,21,1
ChD_v5_MB,6,4,true,14,0,Correct,0.719781464708649,7,S03,F,R,21,4
ChD_v5_MB,6,4,true,15,0,Correct,0.979686430665606,7,S03,F,R,21,4
ChD_v5_MB,6,4,true,16,1,Correct,0.78975801851775,5,S03,F,R,21,1
ChD_v5_MB,6,4,true,17,0,Correct,0.799756083157263,6,S03,F,R,21,4
ChD_v5_MB,6,4,true,18,1,Correct,1.32955930104363,5,S03,F,R,21,1
ChD_v5_MB,6,4,true,19,1,Correct,1.18961028942576,5,S03,F,R,21,1
ChD_v5_MB,6,4,true,20,0,Correct,0.749772927960294,7,S03,F,R,21,4
ChD_v5_MB,6,4,true,21,1,Correct,0.649806958903355,6,S03,F,R,21,1
ChD_v5_MB,6,4,true,22,0,Correct,0.839746635048505,6,S03,F,R,21,4
ChD_v5_MB,6,4,true,23,0,Correct,0.879724557605368,6,S03,F,R,21,4
ChD_v5_MB,6,4,true,24,0,Correct,1.19961449806578,7,S03,F,R,21,4
ChD_v5_MB,6,4,true,25,0,Correct,0.739773839320696,7,S03,F,R,21,4
ChD_v5_MB,6,4,true,26,0,Correct,0.719788632709242,5,S03,F,R,21,4
ChD_v5_MB,6,4,true,27,1,Correct,0.749769173293316,7,S03,F,R,21,1
ChD_v5_MB,6,4,true,28,1,Correct,0.899715908217331,5,S03,F,R,21,1
ChD_v5_MB,6,4,true,29,0,Correct,1.24958809592863,5,S03,F,R,21,4
ChD_v5_MB,6,4,true,30,0,Wrong,1.89935204682115,6,S03,F,R,21,3
ChD_v5_MB,6,4,true,31,1,Correct,1.24961540260119,5,S03,F,R,21,1
ChD_v5_MB,6,4,true,32,0,Correct,0.749772927960294,6,S03,F,R,21,4
ChD_v5_MB,6,4,true,33,1,Correct,1.23959139662256,7,S03,F,R,21,1
ChD_v5_MB,6,4,true,34,1,Wrong,0.729778846681438,7,S03,F,R,21,2
ChD_v5_MB,6,4,true,35,0,Correct,0.669798992178403,6,S03,F,R,21,4
ChD_v5_MB,6,4,true,36,1,Correct,1.15962633550807,5,S03,F,R,21,1
ChD_v5_MB,6,4,true,37,1,Wrong,1.51949044385838,5,S03,F,R,21,2
ChD_v5_MB,6,4,true,38,1,Correct,0.96968973135954,6,S03,F,R,21,1
ChD_v5_MB,6,4,true,39,1,Correct,0.989683471305034,6,S03,F,R,21,1
ChD_v5_MB,6,4,true,40,1,Correct,0.99969109327867,7,S03,F,R,21,1
ChD_v5_MB,6,4,true,41,0,Correct,1.51949044385838,7,S03,F,R,21,4
ChD_v5_MB,6,4,true,42,1,Correct,0.909713631523482,7,S03,F,R,21,1
ChD_v5_MB,7,4,false,1,1,Correct,0.869727516965941,5,S03,F,R,21,1
ChD_v5_MB,7,4,false,2,1,Wrong,0.909711242189951,7,S03,F,R,21,2
ChD_v5_MB,7,4,false,3,0,Wrong,1.12964033359021,7,S03,F,R,21,3
ChD_v5_MB,7,4,false,4,0,Correct,0.7297836253485,5,S03,F,R,21,4
ChD_v5_MB,7,4,false,5,1,Correct,0.659812191539822,5,S03,F,R,21,1
ChD_v5_MB,7,4,false,6,0,Correct,1.29957193379232,6,S03,F,R,21,4
ChD_v5_MB,7,4,false,7,0,Correct,0.68979341479062,5,S03,F,R,21,4
ChD_v5_MB,7,4,false,8,1,Correct,0.859732182996959,6,S03,F,R,21,1
