version,block,frequency,trial,change,response,RT,loads,ID,gender,hand,age,resp_type
ChD_BB_v2,1,0,1,0,Correct,0.838953294328048,7,S01,M,R,20,4
ChD_BB_v2,1,0,2,1,Correct,0.469432905289736,7,S01,M,R,20,1
ChD_BB_v2,1,0,3,0,Correct,0.589275769049705,7,S01,M,R,20,4
ChD_BB_v2,1,0,4,0,Correct,1.10860212712128,6,S01,M,R,20,4
ChD_BB_v2,1,0,5,1,Correct,0.709120339476481,6,S01,M,R,20,1
ChD_BB_v2,1,0,6,1,Wrong,1.07864072851456,5,S01,M,R,20,2
ChD_BB_v2,1,0,7,1,Correct,2.28707037987342,6,S01,M,R,20,1
ChD_BB_v2,1,0,8,0,Correct,1.18850032785062,5,S01,M,R,20,4
ChD_BB_v2,1,0,9,0,Wrong,1.04868718057608,5,S01,M,R,20,3
ChD_BB_v2,1,0,10,1,Wrong,1.45815428064496,7,S01,M,R,20,2
ChD_BB_v2,1,0,11,0,Correct,0.85892596717661,7,S01,M,R,20,4
ChD_BB_v2,1,0,12,0,Correct,0.858926649843561,5,S01,M,R,20,4
ChD_BB_v2,1,0,13,1,Wrong,1.32831586445915,7,S01,M,R,20,2
ChD_BB_v2,1,0,14,1,Correct,0.868913668934451,5,S01,M,R,20,1
ChD_BB_v2,1,0,15,0,Correct,1.25840877882172,6,S01,M,R,20,4
ChD_BB_v2,1,0,16,0,Correct,1.14855191015301,6,S01,M,R,20,4
ChD_BB_v2,1,0,17,1,Wrong,1.74778090628786,7,S01,M,R,20,2
ChD_BB_v2,1,0,18,0,Timeout,NaN,6,S01,M,R,20,0
ChD_BB_v2,1,0,19,1,Correct,1.34829536397585,6,S01,M,R,20,1
ChD_BB_v2,1,0,20,1,Correct,2.0973176998089,5,S01,M,R,20,1
ChD_BB_v2,1,0,21,0,Correct,2.04738396968698,5,S01,M,R,20,4
ChD_BB_v2,1,0,22,1,Correct,0.858925284509887,5,S01,M,R,20,1
ChD_BB_v2,1,0,23,0,Correct,1.19848461627485,6,S01,M,R,20,4
ChD_BB_v2,1,0,24,1,Wrong,1.85762821762199,7,S01,M,R,20,2
ChD_BB_v2,1,0,25,1,Wrong,1.33830390755035,6,S01,M,R,20,2
ChD_BB_v2,1,0,26,0,Correct,1.97747244671517,6,S01,M,R,20,4
ChD_BB_v2,1,0,27,1,Correct,1.09861442536344,7,S01,M,R,20,1
ChD_BB_v2,1,0,28,0,Correct,1.30834353294395,7,S01,M,R,20,4
ChD_BB_v2,1,0,29,0,Correct,1.20847402469949,5,S01,M,R,20,4
ChD_BB_v2,1,0,30,1,Correct,0.699135368385987,5,S01,M,R,20,1
ChD_BB_v2,1,0,31,1,Correct,0.659185244020891,6,S01,M,R,20,1
ChD_BB_v2,1,0,32,1,Correct,1.32831791245932,5,S01,M,R,20,1
ChD_BB_v2,1,0,33,1,Correct,0.978769513603302,6,S01,M,R,20,1
ChD_BB_v2,1,0,34,1,Correct,0.898874043541082,5,S01,M,R,20,1
ChD_BB_v2,1,0,35,0,Correct,1.16852526566853,7,S01,M,R,20,4
ChD_BB_v2,1,0,36,0,Correct,0.978775657604265,6,S01,M,R,20,4
ChD_BB_v2,1,0,37,0,Correct,2.10730574289988,7,S01,M,R,20,4
ChD_BB_v2,1,0,38,0,Correct,0.808994285055091,5,S01,M,R,20,4
ChD_BB_v2,1,0,39,1,Wrong,1.15853824657695,6,S01,M,R,20,2
ChD_BB_v2,1,0,40,0,Wrong,0.769052011358221,7,S01,M,R,20,3
ChD_BB_v2,1,0,41,0,Correct,1.94751036544174,7,S01,M,R,20,4
ChD_BB_v2,1,0,42,1,Correct,0.439477992017346,5,S01,M,R,20,1
ChD_BB_v2,2,0,1,0,Wrong,1.78771805998385,5,S01,M,R,20,3
ChD_BB_v2,2,0,2,1,Correct,0.759056800265516,5,S01,M,R,20,1
ChD_BB_v2,2,0,3,1,Wrong,1.13856250172791,7,S01,M,R,20,2
ChD_BB_v2,2,0,4,1,Correct,0.659185244021346,6,S01,M,R,20,1
ChD_BB_v2,2,0,5,0,Correct,0.629233744082571,7,S01,M,R,20,4
ChD_BB_v2,2,0,6,1,Correct,0.779028790447583,7,S01,M,R,20,1
ChD_BB_v2,2,0,7,0,Correct,0.679160988869935,6,S01,M,R,20,4
ChD_BB_v2,2,0,8,0,Correct,0.689146642627606,6,S01,M,R,20,4
ChD_BB_v2,2,0,9,1,Correct,1.15853790524405,7,S01,M,R,20,1
ChD_BB_v2,2,0,10,1,Correct,1.53804258270636,6,S01,M,R,20,1
ChD_BB_v2,2,0,11,1,Wrong,0.858935183178282,7,S01,M,R,20,2
ChD_BB_v2,2,0,12,0,Correct,1.24842039439739,6,S01,M,R,20,4
ChD_BB_v2,2,0,13,0,Correct,0.80899394372173,7,S01,M,R,20,4
ChD_BB_v2,2,0,14,0,Correct,0.868916399601799,5,S01,M,R,20,4
ChD_BB_v2,2,0,15,1,Correct,0.958796840754512,5,S01,M,R,20,1
ChD_BB_v2,2,0,16,1,Wrong,1.14884020559937,6,S01,M,R,20,2
ChD_BB_v2,2,0,17,0,Correct,0.998743893119354,5,S01,M,R,20,4
ChD_BB_v2,2,0,18,1,Timeout,NaN,5,S01,M,R,20,0
ChD_BB_v2,2,0,19,0,Correct,1.21845831312349,7,S01,M,R,20,4
ChD_BB_v2,2,0,20,1,Correct,2.41690060405764,5,S01,M,R,20,1
ChD_BB_v2,2,0,21,1,Wrong,0.83895090499429,6,S01,M,R,20,2
ChD_BB_v2,2,0,22,0,Correct,0.69927420553754,7,S01,M,R,20,4
ChD_BB_v2,2,0,23,0,Correct,0.729105641660558,6,S01,M,R,20,4
ChD_BB_v2,2,0,24,0,Correct,1.30834114361019,6,S01,M,R,20,4
ChD_BB_v2,2,0,25,1,Correct,1.30834114361019,7,S01,M,R,20,1
ChD_BB_v2,2,0,26,1,Correct,1.98745844180621,6,S01,M,R,20,1
ChD_BB_v2,2,0,27,0,Correct,0.709121363476565,6,S01,M,R,20,4
ChD_BB_v2,2,0,28,1,Wrong,1.51807400585791,7,S01,M,R,20,2
ChD_BB_v2,2,0,29,0,Correct,0.719115891902547,7,S01,M,R,20,4
ChD_BB_v2,2,0,30,1,Correct,0.689151079961762,6,S01,M,R,20,1
ChD_BB_v2,2,0,31,1,Correct,1.21845763045677,7,S01,M,R,20,1
ChD_BB_v2,2,0,32,0,Correct,0.71911418523574,7,S01,M,R,20,4
ChD_BB_v2,2,0,33,1,Correct,1.14855976082124,6,S01,M,R,20,1
ChD_BB_v2,2,0,34,1,Wrong,0.599263470807546,7,S01,M,R,20,2
ChD_BB_v2,2,0,35,0,Correct,0.579289773959126,5,S01,M,R,20,4
ChD_BB_v2,2,0,36,0,Correct,0.649201296930482,5,S01,M,R,20,4
ChD_BB_v2,2,0,37,0,Correct,0.619238874323682,5,S01,M,R,20,4
ChD_BB_v2,2,0,38,1,Correct,0.629224528080899,5,S01,M,R,20,1
ChD_BB_v2,2,0,39,1,Wrong,0.828965933903796,5,S01,M,R,20,2
ChD_BB_v2,2,0,40,0,Correct,0.729094377658716,5,S01,M,R,20,4
ChD_BB_v2,2,0,41,0,Wrong,1.17851057809238,5,S01,M,R,20,3
ChD_BB_v2,2,0,42,0,Correct,0.878899322692123,6,S01,M,R,20,4
ChD_BB_v2,3,7,1,1,Wrong,1.5979670865866,5,S01,M,R,20,2
ChD_BB_v2,3,7,2,0,Correct,1.72779765210395,7,S01,M,R,20,4
ChD_BB_v2,3,7,3,1,Correct,0.529442401184738,5,S01,M,R,20,1
ChD_BB_v2,3,7,4,1,Correct,1.35827658039914,6,S01,M,R,20,1
ChD_BB_v2,3,7,5,0,Correct,0.838972067664981,6,S01,M,R,20,4
ChD_BB_v2,3,7,6,0,Correct,0.739081738083196,5,S01,M,R,20,4
ChD_BB_v2,3,7,7,1,Correct,1.13856250172791,5,S01,M,R,20,1
ChD_BB_v2,3,7,8,0,Correct,0.749073877175192,5,S01,M,R,20,4
ChD_BB_v2,3,7,9,1,Wrong,1.27843231034571,6,S01,M,R,20,2
ChD_BB_v2,3,7,10,0,Correct,0.769042795356549,6,S01,M,R,20,4
ChD_BB_v2,3,7,11,1,Correct,0.669187281781283,7,S01,M,R,20,1
ChD_BB_v2,3,7,12,0,Correct,0.799146063306489,6,S01,M,R,20,4
ChD_BB_v2,3,7,13,0,Correct,0.749068757174314,6,S01,M,R,20,4
ChD_BB_v2,3,7,14,1,Correct,0.63921222983874,5,S01,M,R,20,1
ChD_BB_v2,3,7,15,0,Correct,0.709119315476396,5,S01,M,R,20,4
ChD_BB_v2,3,7,16,1,Wrong,1.59797084125357,7,S01,M,R,20,2
ChD_BB_v2,3,7,17,0,Wrong,1.84764051586392,6,S01,M,R,20,3
ChD_BB_v2,3,7,18,1,Correct,1.80769858350041,5,S01,M,R,20,1
ChD_BB_v2,3,7,19,1,Wrong,2.44686405066452,7,S01,M,R,20,2
ChD_BB_v2,3,7,20,0,Correct,1.10860144445456,5,S01,M,R,20,4
ChD_BB_v2,3,7,21,1,Correct,0.719107358567599,6,S01,M,R,20,1
ChD_BB_v2,3,7,22,0,Correct,1.26839306724572,5,S01,M,R,20,4
ChD_BB_v2,3,7,23,0,Correct,1.23843235130573,7,S01,M,R,20,4
ChD_BB_v2,3,7,24,1,Correct,0.739086516750713,7,S01,M,R,20,1
ChD_BB_v2,3,7,25,1,Correct,0.74907353584183,6,S01,M,R,20,1
ChD_BB_v2,3,7,26,0,Correct,0.70912682481126,5,S01,M,R,20,4
ChD_BB_v2,3,7,27,1,Correct,0.988758239361227,6,S01,M,R,20,1
ChD_BB_v2,3,7,28,1,Correct,1.02871245972712,7,S01,M,R,20,1
ChD_BB_v2,3,7,29,0,Correct,1.13856386706181,6,S01,M,R,20,4
ChD_BB_v2,3,7,30,0,Correct,1.03869401748354,7,S01,M,R,20,4
ChD_BB_v2,3,7,31,0,Correct,0.838952270328191,5,S01,M,R,20,4
ChD_BB_v2,3,7,32,1,Correct,0.838968995663818,6,S01,M,R,20,1
ChD_BB_v2,3,7,33,1,Correct,0.7890158095387,6,S01,M,R,20,1
ChD_BB_v2,3,7,34,0,Correct,0.399524454319089,7,S01,M,R,20,4
ChD_BB_v2,3,7,35,1,Wrong,1.83765486210625,7,S01,M,R,20,2
ChD_BB_v2,3,7,36,0,Correct,0.858925625843249,7,S01,M,R,20,4
ChD_BB_v2,3,7,37,1,Correct,0.70916949148464,7,S01,M,R,20,1
ChD_BB_v2,3,7,38,0,Correct,2.40691563296669,5,S01,M,R,20,4
ChD_BB_v2,3,7,39,1,Correct,0.529354337169721,5,S01,M,R,20,1
ChD_BB_v2,3,7,40,0,Wrong,1.42819629537209,7,S01,M,R,20,3
ChD_BB_v2,3,7,41,1,Wrong,0.649202320930567,6,S01,M,R,20,2
ChD_BB_v2,3,7,42,0,Correct,0.779028790447583,7,S01,M,R,20,4
ChD_BB_v2,4,4,1,1,Correct,0.529362187837492,6,S01,M,R,20,1
ChD_BB_v2,4,4,2,1,Correct,1.60795103367655,7,S01,M,R,20,1
ChD_BB_v2,4,4,3,0,Correct,0.659196508022733,6,S01,M,R,20,4
ChD_BB_v2,4,4,4,0,Wrong,2.28706901453974,7,S01,M,R,20,3
ChD_BB_v2,4,4,5,0,Correct,0.449459208441317,7,S01,M,R,20,4
ChD_BB_v2,4,4,6,1,Correct,0.609253561899372,5,S01,M,R,20,1
ChD_BB_v2,4,4,7,0,Correct,0.719142857240386,7,S01,M,R,20,4
ChD_BB_v2,4,4,8,1,Wrong,1.51806854452367,7,S01,M,R,20,2
ChD_BB_v2,4,4,9,0,Correct,1.01871758996777,6,S01,M,R,20,4
ChD_BB_v2,4,4,10,1,Correct,0.709121022143204,5,S01,M,R,20,1
ChD_BB_v2,4,4,11,1,Wrong,0.539367638931953,6,S01,M,R,20,2
ChD_BB_v2,4,4,12,1,Correct,0.818978573478862,5,S01,M,R,20,1
ChD_BB_v2,4,4,13,1,Correct,1.44816521355344,5,S01,M,R,20,1
ChD_BB_v2,4,4,14,0,Correct,1.37825061858138,5,S01,M,R,20,4
ChD_BB_v2,4,4,15,1,Wrong,1.17851194342583,5,S01,M,R,20,2
ChD_BB_v2,4,4,16,1,Correct,0.759057141598878,6,S01,M,R,20,1
ChD_BB_v2,4,4,17,0,Correct,0.779030155781484,7,S01,M,R,20,4
ChD_BB_v2,4,4,18,0,Correct,0.60924980723194,6,S01,M,R,20,4
ChD_BB_v2,4,4,19,0,Correct,1.12857514130343,7,S01,M,R,20,4
ChD_BB_v2,4,4,20,0,Wrong,4.60800079054025e-05,6,S01,M,R,20,3
ChD_BB_v2,4,4,21,0,Correct,0.779029814447667,5,S01,M,R,20,4
ChD_BB_v2,4,4,22,0,Correct,0.749068415840952,5,S01,M,R,20,4
ChD_BB_v2,4,4,23,0,Correct,0.649685233161858,5,S01,M,R,20,4
ChD_BB_v2,4,4,24,0,Correct,0.609252196565471,5,S01,M,R,20,4
ChD_BB_v2,4,4,25,0,Correct,1.41819903627967,7,S01,M,R,20,4
ChD_BB_v2,4,4,26,1,Correct,0.948817330998258,5,S01,M,R,20,1
ChD_BB_v2,4,4,27,1,Wrong,0.818978914812678,7,S01,M,R,20,2
ChD_BB_v2,4,4,28,1,Wrong,1.0886267236056,7,S01,M,R,20,2
ChD_BB_v2,4,4,29,1,Correct,1.78772079065074,7,S01,M,R,20,1
ChD_BB_v2,4,4,30,1,Correct,0.868913668934906,7,S01,M,R,20,1
ChD_BB_v2,4,4,31,0,Correct,0.908861745298923,6,S01,M,R,20,4
ChD_BB_v2,4,4,32,0,Correct,0.779035275782362,6,S01,M,R,20,4
ChD_BB_v2,4,4,33,0,Correct,1.64790320604227,7,S01,M,R,20,4
ChD_BB_v2,4,4,34,0,Correct,0.679161330203751,5,S01,M,R,20,4
ChD_BB_v2,4,4,35,1,Correct,0.988769162029707,6,S01,M,R,20,1
ChD_BB_v2,4,4,36,0,Wrong,1.25840570682124,6,S01,M,R,20,3
ChD_BB_v2,4,4,37,1,Correct,2.19718584271968,6,S01,M,R,20,1
ChD_BB_v2,4,4,38,1,Wrong,0.838960120995962,6,S01,M,R,20,2
ChD_BB_v2,4,4,39,0,Correct,0.569311970869226,5,S01,M,R,20,4
ChD_BB_v2,4,4,40,1,Wrong,1.39822431543025,7,S01,M,R,20,2
ChD_BB_v2,4,4,41,1,Correct,0.848939972086032,6,S01,M,R,20,1
ChD_BB_v2,4,4,42,1,Correct,1.45814642997696,5,S01,M,R,20,1
ChD_BB_v2,5,4,1,1,Correct,0.67915996486985,5,S01,M,R,20,1
ChD_BB_v2,5,4,2,0,Correct,0.489407284805788,5,S01,M,R,20,4
ChD_BB_v2,5,4,3,1,Correct,0.719108041234776,6,S01,M,R,20,1
ChD_BB_v2,5,4,4,0,Correct,0.639273328515919,7,S01,M,R,20,4
ChD_BB_v2,5,4,5,1,Wrong,0.85892596717661,7,S01,M,R,20,2
ChD_BB_v2,5,4,6,0,Correct,0.549330764685487,5,S01,M,R,20,4
ChD_BB_v2,5,4,7,1,Correct,0.769043136690366,6,S01,M,R,20,1
ChD_BB_v2,5,4,8,1,Correct,1.0486820605752,6,S01,M,R,20,1
ChD_BB_v2,5,4,9,1,Wrong,0.409513521409922,6,S01,M,R,20,2
ChD_BB_v2,5,4,10,0,Correct,0.469432563956375,5,S01,M,R,20,4
ChD_BB_v2,5,4,11,0,Correct,0.489444831478745,6,S01,M,R,20,4
ChD_BB_v2,5,4,12,1,Wrong,0.449484125778986,6,S01,M,R,20,2
ChD_BB_v2,5,4,13,0,Wrong,1.55809608889493,6,S01,M,R,20,3
ChD_BB_v2,5,4,14,1,Correct,1.24842073573029,7,S01,M,R,20,1
ChD_BB_v2,5,4,15,1,Wrong,0.789017857539325,7,S01,M,R,20,2
ChD_BB_v2,5,4,16,0,Correct,0.838957390328614,7,S01,M,R,20,4
ChD_BB_v2,5,4,17,1,Correct,0.918849447057219,5,S01,M,R,20,1
ChD_BB_v2,5,4,18,0,Correct,0.459449299532689,6,S01,M,R,20,4
ChD_BB_v2,5,4,19,1,Correct,0.779031862448291,7,S01,M,R,20,1
ChD_BB_v2,5,4,20,0,Correct,0.499394303896452,5,S01,M,R,20,4
ChD_BB_v2,5,4,21,0,Correct,0.459444520865172,5,S01,M,R,20,4
ChD_BB_v2,5,4,22,0,Correct,0.988757898027866,6,S01,M,R,20,4
ChD_BB_v2,5,4,23,1,Correct,0.659185585354253,7,S01,M,R,20,1
ChD_BB_v2,5,4,24,0,Correct,0.46944451062494,7,S01,M,R,20,4
ChD_BB_v2,5,4,25,1,Wrong,0.619237850323143,5,S01,M,R,20,2
ChD_BB_v2,5,4,26,0,Correct,0.649198566263135,6,S01,M,R,20,4
ChD_BB_v2,5,4,27,0,Correct,0.469432222623468,7,S01,M,R,20,4
ChD_BB_v2,5,4,28,0,Correct,0.549333495353289,5,S01,M,R,20,4
ChD_BB_v2,5,4,29,1,Correct,0.779033910448461,5,S01,M,R,20,1
ChD_BB_v2,5,4,30,1,Correct,0.749068415840952,5,S01,M,R,20,1
ChD_BB_v2,5,4,31,1,Wrong,0.868914351601174,5,S01,M,R,20,2
ChD_BB_v2,5,4,32,0,Correct,1.18849793851686,5,S01,M,R,20,4
ChD_BB_v2,5,4,33,1,Wrong,0.74907012250776,6,S01,M,R,20,2
ChD_BB_v2,5,4,34,0,Correct,1.0287063157257,6,S01,M,R,20,4
ChD_BB_v2,5,4,35,1,Correct,0.72909506032544,7,S01,M,R,20,1
ChD_BB_v2,5,4,36,0,Correct,0.509379616321216,7,S01,M,R,20,4
ChD_BB_v2,5,4,37,1,Correct,0.599265177474808,6,S01,M,R,20,1
ChD_BB_v2,5,4,38,0,Correct,0.67915996486985,7,S01,M,R,20,4
ChD_BB_v2,5,4,39,1,Correct,2.13726509350642,6,S01,M,R,20,1
ChD_BB_v2,5,4,40,0,Correct,0.359576036621256,5,S01,M,R,20,4
ChD_BB_v2,5,4,41,0,Wrong,1.27838315833709,7,S01,M,R,20,3
ChD_BB_v2,5,4,42,1,Wrong,0.389536411227432,7,S01,M,R,20,2
ChD_BB_v2,6,4,1,0,Correct,0.479419924381309,6,S01,M,R,20,4
ChD_BB_v2,6,4,2,1,Correct,0.459445203531895,6,S01,M,R,20,1
ChD_BB_v2,6,4,3,0,Correct,0.409510108076306,6,S01,M,R,20,4
ChD_BB_v2,6,4,4,1,Correct,0.549327692685233,5,S01,M,R,20,1
ChD_BB_v2,6,4,5,1,Correct,0.559315394443074,5,S01,M,R,20,1
ChD_BB_v2,6,4,6,0,Correct,0.379548026802868,5,S01,M,R,20,4
ChD_BB_v2,6,4,7,1,Correct,0.95879752342169,7,S01,M,R,20,1
ChD_BB_v2,6,4,8,0,Correct,0.439476285350538,6,S01,M,R,20,4
ChD_BB_v2,6,4,9,1,Correct,0.589277817050329,5,S01,M,R,20,1
ChD_BB_v2,6,4,10,0,Correct,0.759056117598793,5,S01,M,R,20,4
ChD_BB_v2,6,4,11,1,Correct,0.48941854880763,7,S01,M,R,20,1
ChD_BB_v2,6,4,12,0,Correct,0.619237850323598,6,S01,M,R,20,4
ChD_BB_v2,6,4,13,0,Correct,0.978770196270479,6,S01,M,R,20,4
ChD_BB_v2,6,4,14,0,Correct,1.25840673082133,7,S01,M,R,20,4
ChD_BB_v2,6,4,15,1,Correct,0.66917465244554,5,S01,M,R,20,1
ChD_BB_v2,6,4,16,1,Wrong,1.68784957573948,7,S01,M,R,20,2
ChD_BB_v2,6,4,17,1,Wrong,1.24841971173021,7,S01,M,R,20,2
ChD_BB_v2,6,4,18,0,Correct,5.15413421453559e-05,6,S01,M,R,20,4
ChD_BB_v2,6,4,19,1,Correct,0.9088610626322,7,S01,M,R,20,1
ChD_BB_v2,6,4,20,1,Correct,2.28706969720647,5,S01,M,R,20,1
ChD_BB_v2,6,4,21,1,Correct,1.2284507935493,5,S01,M,R,20,1
ChD_BB_v2,6,4,22,1,Wrong,0.379554170804286,7,S01,M,R,20,2
ChD_BB_v2,6,4,23,1,Correct,0.569303778867638,6,S01,M,R,20,1
ChD_BB_v2,6,4,24,1,Correct,1.11858880487949,6,S01,M,R,20,1
ChD_BB_v2,6,4,25,0,Correct,2.1273511197615,7,S01,M,R,20,4
ChD_BB_v2,6,4,26,1,Correct,0.639265136514787,5,S01,M,R,20,1
ChD_BB_v2,6,4,27,1,Wrong,2.23713426041751,6,S01,M,R,20,2
ChD_BB_v2,6,4,28,0,Correct,1.45814847797713,7,S01,M,R,20,4
ChD_BB_v2,6,4,29,0,Wrong,0.479419583047493,6,S01,M,R,20,3
ChD_BB_v2,6,4,30,0,Correct,0.649199248929858,7,S01,M,R,20,4
ChD_BB_v2,6,4,31,0,Correct,0.918847740389956,7,S01,M,R,20,4
ChD_BB_v2,6,4,32,0,Correct,1.56801456264774,6,S01,M,R,20,4
ChD_BB_v2,6,4,33,0,Correct,0.839046836620964,5,S01,M,R,20,4
ChD_BB_v2,6,4,34,0,Wrong,2.027413003505,7,S01,M,R,20,3
ChD_BB_v2,6,4,35,1,Correct,0.409509425409583,5,S01,M,R,20,1
ChD_BB_v2,6,4,36,1,Wrong,0.509380640320846,5,S01,M,R,20,2
ChD_BB_v2,6,4,37,0,Correct,0.589276793049789,6,S01,M,R,20,4
ChD_BB_v2,6,4,38,0,Correct,0.878909904027696,6,S01,M,R,20,4
ChD_BB_v2,6,4,39,1,Wrong,0.499398058563884,5,S01,M,R,20,2
ChD_BB_v2,6,4,40,1,Correct,0.539342038928016,5,S01,M,R,20,1
ChD_BB_v2,6,4,41,0,Correct,1.32832542179418,7,S01,M,R,20,4
ChD_BB_v2,6,4,42,0,Correct,1.12857821330414,7,S01,M,R,20,4
ChD_BB_v2,7,7,1,1,Wrong,1.10860519912199,6,S01,M,R,20,2
ChD_BB_v2,7,7,2,1,Wrong,0.739084468750543,7,S01,M,R,20,2
ChD_BB_v2,7,7,3,1,Correct,0.529354337169721,5,S01,M,R,20,1
ChD_BB_v2,7,7,4,0,Correct,0.858937913845175,7,S01,M,R,20,4
ChD_BB_v2,7,7,5,1,Correct,0.509379616320762,6,S01,M,R,20,1
ChD_BB_v2,7,7,6,1,Wrong,0.35957569528744,5,S01,M,R,20,2
ChD_BB_v2,7,7,7,0,Correct,0.829059134862668,7,S01,M,R,20,4
ChD_BB_v2,7,7,8,0,Correct,0.539340673594115,5,S01,M,R,20,4
ChD_BB_v2,7,7,9,0,Correct,0.679160647536573,5,S01,M,R,20,4
ChD_BB_v2,7,7,10,0,Correct,1.8576278762884,6,S01,M,R,20,4
ChD_BB_v2,7,7,11,0,Correct,0.729094718992533,6,S01,M,R,20,4
ChD_BB_v2,7,7,12,1,Correct,1.04868035390839,7,S01,M,R,20,1
ChD_BB_v2,7,7,13,1,Correct,0.559314370442989,6,S01,M,R,20,1
ChD_BB_v2,7,7,14,1,Wrong,0.64930311084147,7,S01,M,R,20,2
ChD_BB_v2,7,7,15,1,Correct,0.509382005654747,7,S01,M,R,20,1
ChD_BB_v2,7,7,16,0,Correct,0.549337591353628,5,S01,M,R,20,4
ChD_BB_v2,7,7,17,1,Correct,0.908860721298838,5,S01,M,R,20,1
ChD_BB_v2,7,7,18,1,Correct,0.848939289418854,5,S01,M,R,20,1
ChD_BB_v2,7,7,19,0,Correct,0.489406602138611,5,S01,M,R,20,4
ChD_BB_v2,7,7,20,0,Correct,0.88898227340946,5,S01,M,R,20,4
ChD_BB_v2,7,7,21,1,Correct,0.759064992267104,5,S01,M,R,20,1
ChD_BB_v2,7,7,22,0,Correct,0.73908378608382,7,S01,M,R,20,4
ChD_BB_v2,7,7,23,0,Correct,0.948808114996586,6,S01,M,R,20,4
ChD_BB_v2,7,7,24,0,Wrong,1.55802208222238,6,S01,M,R,20,3
ChD_BB_v2,7,7,25,0,Correct,0.699133661718724,7,S01,M,R,20,4
ChD_BB_v2,7,7,26,1,Correct,0.75905543493207,5,S01,M,R,20,1
ChD_BB_v2,7,7,27,0,Correct,1.5480405244655,6,S01,M,R,20,4
ChD_BB_v2,7,7,28,1,Wrong,0.808991895721106,7,S01,M,R,20,2
ChD_BB_v2,7,7,29,1,Wrong,1.61794044210165,5,S01,M,R,20,2
ChD_BB_v2,7,7,30,1,Correct,0.72909506032544,7,S01,M,R,20,1
ChD_BB_v2,7,7,31,0,Correct,1.7578017173845,7,S01,M,R,20,4
ChD_BB_v2,7,7,32,0,Correct,0.689145959960883,6,S01,M,R,20,4
ChD_BB_v2,7,7,33,1,Correct,1.0386943588169,7,S01,M,R,20,1
ChD_BB_v2,7,7,34,0,Correct,0.769045526023897,6,S01,M,R,20,4
ChD_BB_v2,7,7,35,0,Correct,0.729099156326233,6,S01,M,R,20,4
ChD_BB_v2,7,7,36,0,Correct,0.978769854936663,6,S01,M,R,20,4
ChD_BB_v2,7,7,37,0,Correct,0.679160988869935,7,S01,M,R,20,4
ChD_BB_v2,7,7,38,1,Wrong,0.749070463841576,7,S01,M,R,20,2
ChD_BB_v2,7,7,39,1,Wrong,0.729094036325355,6,S01,M,R,20,2
ChD_BB_v2,7,7,40,0,Correct,0.689146301294245,5,S01,M,R,20,4
ChD_BB_v2,7,7,41,1,Correct,0.828964909903257,5,S01,M,R,20,1
ChD_BB_v2,7,7,42,1,Correct,1.50808186676591,6,S01,M,R,20,1
ChD_BB_v2,8,7,1,0,Correct,0.559318125109967,6,S01,M,R,20,4
ChD_BB_v2,8,7,2,0,Correct,0.509380298987485,5,S01,M,R,20,4
ChD_BB_v2,8,7,3,1,Wrong,0.838960462328869,5,S01,M,R,20,2
ChD_BB_v2,8,7,4,1,Correct,0.619249796992162,6,S01,M,R,20,1
ChD_BB_v2,8,7,5,0,Correct,0.679161671536658,6,S01,M,R,20,4
ChD_BB_v2,8,7,6,1,Correct,0.88888941378395,5,S01,M,R,20,1
ChD_BB_v2,8,7,7,0,Correct,0.519366976745241,6,S01,M,R,20,4
ChD_BB_v2,8,7,8,1,Wrong,0.499394645229813,6,S01,M,R,20,2
ChD_BB_v2,8,7,9,1,Correct,0.549333495352835,7,S01,M,R,20,1
ChD_BB_v2,8,7,10,1,Correct,0.619237508989781,5,S01,M,R,20,1
ChD_BB_v2,8,7,11,1,Wrong,1.03869231081719,7,S01,M,R,20,2
ChD_BB_v2,8,7,12,1,Correct,0.529353995836359,5,S01,M,R,20,1
ChD_BB_v2,8,7,13,0,Wrong,0.679169180871522,7,S01,M,R,20,3
ChD_BB_v2,8,7,14,0,Correct,0.459447934199243,6,S01,M,R,20,4
ChD_BB_v2,8,7,15,0,Correct,1.47812900149369,5,S01,M,R,20,4
ChD_BB_v2,8,7,16,1,Correct,0.99875515712074,5,S01,M,R,20,1
ChD_BB_v2,8,7,17,1,Correct,0.928846023482915,5,S01,M,R,20,1
ChD_BB_v2,8,7,18,1,Correct,0.988758239361682,7,S01,M,R,20,1
ChD_BB_v2,8,7,19,1,Correct,1.20847265936582,5,S01,M,R,20,1
ChD_BB_v2,8,7,20,0,Correct,0.499402154564677,7,S01,M,R,20,4
ChD_BB_v2,8,7,21,0,Correct,0.90886993730051,7,S01,M,R,20,4
ChD_BB_v2,8,7,22,1,Correct,0.62922794141497,6,S01,M,R,20,1
ChD_BB_v2,8,7,23,1,Wrong,0.828965251236618,5,S01,M,R,20,2
ChD_BB_v2,8,7,24,0,Correct,0.749070463841122,6,S01,M,R,20,4
ChD_BB_v2,8,7,25,1,Correct,1.10860485778863,6,S01,M,R,20,1
ChD_BB_v2,8,7,26,1,Correct,0.888889072450133,5,S01,M,R,20,1
ChD_BB_v2,8,7,27,0,Correct,0.529356043836983,6,S01,M,R,20,4
ChD_BB_v2,8,7,28,0,Wrong,0.998745599785707,6,S01,M,R,20,3
ChD_BB_v2,8,7,29,0,Correct,0.719107358567599,6,S01,M,R,20,4
ChD_BB_v2,8,7,30,0,Correct,1.13856181906164,7,S01,M,R,20,4
ChD_BB_v2,8,7,31,0,Correct,0.519366294078518,5,S01,M,R,20,4
ChD_BB_v2,8,7,32,1,Correct,0.86891127960092,6,S01,M,R,20,1
ChD_BB_v2,8,7,33,0,Correct,1.42818639670369,7,S01,M,R,20,4
ChD_BB_v2,8,7,34,0,Correct,1.62792609585932,7,S01,M,R,20,4
ChD_BB_v2,8,7,35,1,Correct,0.649204368931191,5,S01,M,R,20,1
ChD_BB_v2,8,7,36,0,Correct,0.389535387227347,6,S01,M,R,20,4
ChD_BB_v2,8,7,37,1,Correct,0.679158599536404,7,S01,M,R,20,1
ChD_BB_v2,8,7,38,1,Wrong,0.469458505294583,7,S01,M,R,20,2
ChD_BB_v2,8,7,39,0,Correct,0.709123070143828,7,S01,M,R,20,4
ChD_BB_v2,8,7,40,0,Correct,0.619236826323058,7,S01,M,R,20,4
ChD_BB_v2,8,7,41,1,Correct,0.599263129474184,7,S01,M,R,20,1
ChD_BB_v2,8,7,42,0,Correct,0.379548368136229,5,S01,M,R,20,4
ChD_BB_v2,9,0,1,1,Correct,0.389540848561587,6,S01,M,R,20,1
ChD_BB_v2,9,0,2,0,Correct,0.409510790743484,7,S01,M,R,20,4
ChD_BB_v2,9,0,3,0,Correct,0.589281571717306,6,S01,M,R,20,4
ChD_BB_v2,9,0,4,1,Correct,0.519367659412419,6,S01,M,R,20,1
ChD_BB_v2,9,0,5,1,Correct,0.579288749958587,6,S01,M,R,20,1
ChD_BB_v2,9,0,6,1,Correct,0.858924943176526,7,S01,M,R,20,1
ChD_BB_v2,9,0,7,0,Correct,0.46943256395683,6,S01,M,R,20,4
ChD_BB_v2,9,0,8,0,Correct,0.918847740389956,6,S01,M,R,20,4
ChD_BB_v2,9,0,9,1,Wrong,1.64790115804165,7,S01,M,R,20,2
ChD_BB_v2,9,0,10,1,Correct,0.429483122258457,7,S01,M,R,20,1
ChD_BB_v2,9,0,11,0,Correct,0.40950874274286,5,S01,M,R,20,4
ChD_BB_v2,9,0,12,0,Correct,0.429483122258457,5,S01,M,R,20,4
ChD_BB_v2,9,0,13,0,Wrong,0.988761994028659,6,S01,M,R,20,3
ChD_BB_v2,9,0,14,1,Wrong,0.709126483477899,7,S01,M,R,20,2
ChD_BB_v2,9,0,15,1,Correct,0.469456457293959,5,S01,M,R,20,1
ChD_BB_v2,9,0,16,0,Correct,0.639213936506003,5,S01,M,R,20,4
ChD_BB_v2,9,0,17,0,Correct,1.12857479997007,5,S01,M,R,20,4
ChD_BB_v2,9,0,18,0,Correct,0.70912136347702,7,S01,M,R,20,4
ChD_BB_v2,9,0,19,0,Correct,1.0986202280315,7,S01,M,R,20,4
ChD_BB_v2,9,0,20,1,Correct,0.828964568569895,6,S01,M,R,20,1
ChD_BB_v2,9,0,21,1,Correct,0.599264836140992,7,S01,M,R,20,1
ChD_BB_v2,9,0,22,1,Correct,0.828965592570435,5,S01,M,R,20,1
ChD_BB_v2,9,0,23,1,Wrong,0.359574671287355,6,S01,M,R,20,2
ChD_BB_v2,9,0,24,0,Correct,0.898877115541336,7,S01,M,R,20,4
ChD_BB_v2,9,0,25,0,Correct,0.958797182087874,6,S01,M,R,20,4
ChD_BB_v2,9,0,26,1,Wrong,1.15854200124439,5,S01,M,R,20,2
ChD_BB_v2,9,0,27,1,Correct,0.589277475716512,6,S01,M,R,20,1
ChD_BB_v2,9,0,28,0,Wrong,0.599263812140907,7,S01,M,R,20,3
ChD_BB_v2,9,0,29,0,Correct,0.319626253589522,5,S01,M,R,20,4
ChD_BB_v2,9,0,30,0,Correct,0.74906909850813,5,S01,M,R,20,4
ChD_BB_v2,9,0,31,1,Correct,0.529355702503167,7,S01,M,R,20,1
ChD_BB_v2,9,0,32,0,Wrong,0.878902736025739,6,S01,M,R,20,3
ChD_BB_v2,9,0,33,1,Wrong,0.489406943472427,5,S01,M,R,20,2
ChD_BB_v2,9,0,34,0,Correct,0.759055093598708,6,S01,M,R,20,4
ChD_BB_v2,9,0,35,0,Correct,0.409510108076306,7,S01,M,R,20,4
ChD_BB_v2,9,0,36,1,Correct,0.679158599536404,5,S01,M,R,20,1
ChD_BB_v2,9,0,37,1,Correct,0.569303096200915,5,S01,M,R,20,1
ChD_BB_v2,9,0,38,1,Wrong,0.449458525774139,5,S01,M,R,20,2
ChD_BB_v2,9,0,39,1,Correct,1.41819937761257,7,S01,M,R,20,1
ChD_BB_v2,9,0,40,0,Correct,0.38953606989407,6,S01,M,R,20,4
ChD_BB_v2,9,0,41,1,Correct,0.749073194508924,5,S01,M,R,20,1
ChD_BB_v2,9,0,42,0,Correct,1.75775734404386,7,S01,M,R,20,4
ChD_BB_v2,1,0,1,1,Timeout,NaN,5,S02,F,R,22,0
ChD_BB_v2,1,0,2,1,Correct,0.379507825396104,6,S02,F,R,22,1
ChD_BB_v2,1,0,3,1,Correct,1.30819791978149,6,S02,F,R,22,1
ChD_BB_v2,1,0,4,0,Wrong,1.60777255083474,5,S02,F,R,22,3
ChD_BB_v2,1,0,5,1,Correct,1.40805339947008,5,S02,F,R,22,1
ChD_BB_v2,1,0,6,0,Correct,1.33815285702372,6,S02,F,R,22,4
ChD_BB_v2,1,0,7,1,Wrong,1.23829498800569,7,S02,F,R,22,2
ChD_BB_v2,1,0,8,0,Correct,1.17837794553157,5,S02,F,R,22,4
ChD_BB_v2,1,0,9,1,Correct,1.57782136825313,5,S02,F,R,22,1
ChD_BB_v2,1,0,10,0,Wrong,1.40806568745109,6,S02,F,R,22,3
ChD_BB_v2,1,0,11,1,Correct,1.3181814197535,6,S02,F,R,22,1
ChD_BB_v2,1,0,12,0,Correct,0.958688722227407,5,S02,F,R,22,4
ChD_BB_v2,1,0,13,1,Correct,1.43801140870778,7,S02,F,R,22,1
ChD_BB_v2,1,0,14,1,Correct,1.23830556932262,7,S02,F,R,22,1
ChD_BB_v2,1,0,15,1,Correct,1.0785193938475,5,S02,F,R,22,1
ChD_BB_v2,1,0,16,0,Correct,0.8887881797815,5,S02,F,R,22,4
ChD_BB_v2,1,0,17,0,Correct,1.41804099543583,6,S02,F,R,22,4
ChD_BB_v2,1,0,18,1,Correct,1.07852007651309,6,S02,F,R,22,1
ChD_BB_v2,1,0,19,0,Correct,1.67769835190893,7,S02,F,R,22,4
ChD_BB_v2,1,0,20,0,Wrong,1.42802722607041,7,S02,F,R,22,3
ChD_BB_v2,1,0,21,0,Correct,0.89877509308144,7,S02,F,R,22,4
ChD_BB_v2,1,0,22,0,Correct,1.15841060425464,7,S02,F,R,22,4
ChD_BB_v2,1,0,23,1,Correct,0.918747554350375,6,S02,F,R,22,1
ChD_BB_v2,1,0,24,0,Correct,0.908758593053449,7,S02,F,R,22,4
ChD_BB_v2,1,0,25,1,Correct,0.888788179781272,6,S02,F,R,22,1
ChD_BB_v2,1,0,26,1,Wrong,0.639140947239639,7,S02,F,R,22,2
ChD_BB_v2,1,0,27,0,Correct,0.948703515591546,7,S02,F,R,22,4
ChD_BB_v2,1,0,28,0,Correct,1.01860371670477,5,S02,F,R,22,4
ChD_BB_v2,1,0,29,1,Correct,1.12844918168878,7,S02,F,R,22,1
ChD_BB_v2,1,0,30,0,Correct,0.828872502638546,5,S02,F,R,22,4
ChD_BB_v2,1,0,31,0,Correct,0.898773045084681,7,S02,F,R,22,4
ChD_BB_v2,1,0,32,0,Correct,0.918744482355123,6,S02,F,R,22,4
ChD_BB_v2,1,0,33,1,Correct,0.818886272004193,6,S02,F,R,22,1
ChD_BB_v2,1,0,34,0,Correct,0.918745165020709,6,S02,F,R,22,4
ChD_BB_v2,1,0,35,1,Correct,0.719035229641804,5,S02,F,R,22,1
ChD_BB_v2,1,0,36,1,Correct,1.05854898057555,6,S02,F,R,22,1
ChD_BB_v2,1,0,37,1,Correct,1.02858994733913,7,S02,F,R,22,1
ChD_BB_v2,1,0,38,0,Correct,0.878809458468595,7,S02,F,R,22,4
ChD_BB_v2,1,0,39,1,Wrong,0.978697706107141,5,S02,F,R,22,2
ChD_BB_v2,1,0,40,0,Correct,1.00861816873601,5,S02,F,R,22,4
ChD_BB_v2,1,0,41,0,Correct,0.719094512880702,6,S02,F,R,22,4
ChD_BB_v2,1,0,42,1,Correct,0.978696340775741,5,S02,F,R,22,1
ChD_BB_v2,2,4,1,0,Correct,1.2782375212139,5,S02,F,R,22,4
ChD_BB_v2,2,4,2,0,Correct,0.938716260958472,6,S02,F,R,22,4
ChD_BB_v2,2,4,3,1,Correct,1.07852041784599,6,S02,F,R,22,1
ChD_BB_v2,2,4,4,1,Correct,1.05867991258901,7,S02,F,R,22,1
ChD_BB_v2,2,4,5,1,Correct,1.33816377967378,6,S02,F,R,22,1
ChD_BB_v2,2,4,6,0,Correct,1.27823615588272,5,S02,F,R,22,4
ChD_BB_v2,2,4,7,1,Correct,0.908758593053449,7,S02,F,R,22,1
ChD_BB_v2,2,4,8,0,Correct,1.09849083111817,5,S02,F,R,22,4
ChD_BB_v2,2,4,9,0,Correct,1.14842198429062,7,S02,F,R,22,4
ChD_BB_v2,2,4,10,1,Wrong,1.0785207591789,7,S02,F,R,22,2
ChD_BB_v2,2,4,11,1,Correct,0.629154716605058,5,S02,F,R,22,1
ChD_BB_v2,2,4,12,1,Correct,1.16839751755481,7,S02,F,R,22,1
ChD_BB_v2,2,4,13,1,Wrong,1.25826847327289,7,S02,F,R,22,2
ChD_BB_v2,2,4,14,0,Correct,0.878803997143905,5,S02,F,R,22,4
ChD_BB_v2,2,4,15,0,Wrong,1.17837862819715,6,S02,F,R,22,3
ChD_BB_v2,2,4,16,1,Wrong,1.22830773337284,6,S02,F,R,22,2
ChD_BB_v2,2,4,17,1,Wrong,0.79891517606643,5,S02,F,R,22,2
ChD_BB_v2,2,4,18,0,Correct,0.818886272003965,6,S02,F,R,22,4
ChD_BB_v2,2,4,19,0,Wrong,0.669099639143155,7,S02,F,R,22,3
ChD_BB_v2,2,4,20,1,Wrong,0.74898709488923,7,S02,F,R,22,2
ChD_BB_v2,2,4,21,1,Wrong,0.998633303432598,6,S02,F,R,22,2
ChD_BB_v2,2,4,22,1,Correct,0.79891381073503,5,S02,F,R,22,1
ChD_BB_v2,2,4,23,0,Correct,0.808900724035198,5,S02,F,R,22,4
ChD_BB_v2,2,4,24,0,Correct,0.838859415938487,6,S02,F,R,22,4
ChD_BB_v2,2,4,25,0,Correct,1.3481404529897,6,S02,F,R,22,4
ChD_BB_v2,2,4,26,0,Wrong,1.31818176108618,7,S02,F,R,22,3
ChD_BB_v2,2,4,27,1,Wrong,1.26825163191222,7,S02,F,R,22,2
ChD_BB_v2,2,4,28,1,Correct,1.20833697876776,6,S02,F,R,22,1
ChD_BB_v2,2,4,29,0,Correct,1.06853384587873,5,S02,F,R,22,4
ChD_BB_v2,2,4,30,0,Correct,0.739000181589063,6,S02,F,R,22,4
ChD_BB_v2,2,4,31,1,Correct,1.02859063000471,5,S02,F,R,22,1
ChD_BB_v2,2,4,32,1,Wrong,0.908761665048928,7,S02,F,R,22,2
ChD_BB_v2,2,4,33,0,Correct,1.43801209137359,7,S02,F,R,22,4
ChD_BB_v2,2,4,34,1,Correct,0.948702491593053,6,S02,F,R,22,1
ChD_BB_v2,2,4,35,0,Correct,0.908758593053449,5,S02,F,R,22,4
ChD_BB_v2,2,4,36,1,Wrong,1.4380110673751,6,S02,F,R,22,2
ChD_BB_v2,2,4,37,1,Correct,0.878801607814239,6,S02,F,R,22,1
ChD_BB_v2,2,4,38,0,Correct,0.699056283049458,5,S02,F,R,22,4
ChD_BB_v2,2,4,39,1,Correct,0.888787838448593,7,S02,F,R,22,1
ChD_BB_v2,2,4,40,0,Correct,0.868817766509096,5,S02,F,R,22,4
ChD_BB_v2,2,4,41,0,Wrong,0.818885589338379,7,S02,F,R,22,3
ChD_BB_v2,2,4,42,0,Wrong,1.44800173533611,5,S02,F,R,22,3
ChD_BB_v2,3,7,1,1,Correct,1.11846260972152,7,S02,F,R,22,1
ChD_BB_v2,3,7,2,0,Correct,1.25827222793373,6,S02,F,R,22,4
ChD_BB_v2,3,7,3,1,Correct,0.928730712989704,6,S02,F,R,22,1
ChD_BB_v2,3,7,4,0,Correct,0.948704539589812,5,S02,F,R,22,4
ChD_BB_v2,3,7,5,0,Wrong,1.70763007852031,6,S02,F,R,22,3
ChD_BB_v2,3,7,6,0,Correct,1.10847706175252,5,S02,F,R,22,4
ChD_BB_v2,3,7,7,1,Wrong,1.19836440144559,7,S02,F,R,22,2
ChD_BB_v2,3,7,8,1,Correct,0.908760299717528,5,S02,F,R,22,1
ChD_BB_v2,3,7,9,0,Correct,1.0485613846098,7,S02,F,R,22,4
ChD_BB_v2,3,7,10,0,Wrong,0.848844281241895,7,S02,F,R,22,3
ChD_BB_v2,3,7,11,1,Correct,0.998633986098184,6,S02,F,R,22,1
ChD_BB_v2,3,7,12,1,Correct,1.01860405803745,7,S02,F,R,22,1
ChD_BB_v2,3,7,13,0,Wrong,0.978660842163663,7,S02,F,R,22,3
ChD_BB_v2,3,7,14,1,Correct,0.898773727750267,6,S02,F,R,22,1
ChD_BB_v2,3,7,15,1,Correct,1.28822375184848,5,S02,F,R,22,1
ChD_BB_v2,3,7,16,0,Wrong,1.49792572051933,7,S02,F,R,22,3
ChD_BB_v2,3,7,17,1,Wrong,1.22830875737111,6,S02,F,R,22,2
ChD_BB_v2,3,7,18,1,Correct,0.868815035846751,5,S02,F,R,22,1
ChD_BB_v2,3,7,19,1,Correct,1.11846534038386,5,S02,F,R,22,1
ChD_BB_v2,3,7,20,0,Wrong,1.33815319835685,5,S02,F,R,22,3
ChD_BB_v2,3,7,21,0,Correct,0.808901406700784,6,S02,F,R,22,4
ChD_BB_v2,3,7,22,1,Correct,0.798914152067937,5,S02,F,R,22,1
ChD_BB_v2,3,7,23,0,Correct,1.31818073708791,6,S02,F,R,22,4
ChD_BB_v2,3,7,24,1,Correct,1.29820929981724,5,S02,F,R,22,1
ChD_BB_v2,3,7,25,0,Wrong,1.69765272253881,7,S02,F,R,22,3
ChD_BB_v2,3,7,26,0,Correct,1.34813977032411,5,S02,F,R,22,4
ChD_BB_v2,3,7,27,0,Wrong,0.908760299717528,6,S02,F,R,22,3
ChD_BB_v2,3,7,28,0,Wrong,0.858829146545077,7,S02,F,R,22,3
ChD_BB_v2,3,7,29,0,Correct,0.888789203779993,5,S02,F,R,22,4
ChD_BB_v2,3,7,30,1,Correct,0.978665620822767,7,S02,F,R,22,1
ChD_BB_v2,3,7,31,1,Correct,1.27823717988122,5,S02,F,R,22,1
ChD_BB_v2,3,7,32,1,Wrong,1.12846488299795,5,S02,F,R,22,2
ChD_BB_v2,3,7,33,1,Correct,0.808901065368104,6,S02,F,R,22,1
ChD_BB_v2,3,7,34,1,Wrong,0.948702491592826,6,S02,F,R,22,2
ChD_BB_v2,3,7,35,0,Correct,1.04856206727538,7,S02,F,R,22,4
ChD_BB_v2,3,7,36,0,Correct,1.00861885140137,6,S02,F,R,22,4
ChD_BB_v2,3,7,37,0,Correct,0.798925416050679,7,S02,F,R,22,4
ChD_BB_v2,3,7,38,0,Correct,1.59778563753457,6,S02,F,R,22,4
ChD_BB_v2,3,7,39,1,Correct,0.679084845779016,7,S02,F,R,22,1
ChD_BB_v2,3,7,40,1,Wrong,1.1284488403561,7,S02,F,R,22,2
ChD_BB_v2,3,7,41,0,Correct,1.1683923975628,6,S02,F,R,22,4
ChD_BB_v2,3,7,42,1,Correct,0.808901748033691,5,S02,F,R,22,1
ChD_BB_v2,4,0,1,1,Timeout,NaN,5,S02,F,R,22,0
ChD_BB_v2,4,0,2,0,Wrong,1.24828155997295,5,S02,F,R,22,3
ChD_BB_v2,4,0,3,1,Correct,0.79891517606643,6,S02,F,R,22,1
ChD_BB_v2,4,0,4,0,Correct,0.778943056130174,5,S02,F,R,22,4
ChD_BB_v2,4,0,5,1,Correct,1.02898168060403,6,S02,F,R,22,1
ChD_BB_v2,4,0,6,0,Wrong,1.07851802851633,6,S02,F,R,22,3
ChD_BB_v2,4,0,7,0,Correct,0.898772362419095,6,S02,F,R,22,4
ChD_BB_v2,4,0,8,0,Correct,1.15840753225939,7,S02,F,R,22,4
ChD_BB_v2,4,0,9,0,Correct,1.38808162086673,7,S02,F,R,22,4
ChD_BB_v2,4,0,10,1,Correct,1.21832355073502,6,S02,F,R,22,1
ChD_BB_v2,4,0,11,0,Wrong,0.619167803305118,6,S02,F,R,22,3
ChD_BB_v2,4,0,12,0,Correct,0.818886613336872,5,S02,F,R,22,4
ChD_BB_v2,4,0,13,1,Correct,0.898773727750267,6,S02,F,R,22,1
ChD_BB_v2,4,0,14,0,Correct,1.25826676660881,5,S02,F,R,22,4
ChD_BB_v2,4,0,15,1,Wrong,1.1983562094581,6,S02,F,R,22,2
ChD_BB_v2,4,0,16,1,Wrong,1.27823649721563,7,S02,F,R,22,2
ChD_BB_v2,4,0,17,1,Correct,0.838858391940221,5,S02,F,R,22,1
ChD_BB_v2,4,0,18,1,Correct,0.808900724035198,6,S02,F,R,22,1
ChD_BB_v2,4,0,19,1,Wrong,1.22830739203994,7,S02,F,R,22,2
ChD_BB_v2,4,0,20,0,Wrong,1.09849356178051,7,S02,F,R,22,3
ChD_BB_v2,4,0,21,1,Correct,0.719027720320128,7,S02,F,R,22,1
ChD_BB_v2,4,0,22,0,Wrong,1.02860291798595,7,S02,F,R,22,3
ChD_BB_v2,4,0,23,1,Wrong,0.988648096796737,6,S02,F,R,22,2
ChD_BB_v2,4,0,24,0,Correct,1.84743252874352,7,S02,F,R,22,4
ChD_BB_v2,4,0,25,0,Correct,0.978661524829249,7,S02,F,R,22,4
ChD_BB_v2,4,0,26,0,Correct,1.01860610603444,5,S02,F,R,22,4
ChD_BB_v2,4,0,27,1,Correct,1.21832150273826,6,S02,F,R,22,1
ChD_BB_v2,4,0,28,1,Correct,1.01860337537209,5,S02,F,R,22,1
ChD_BB_v2,4,0,29,1,Correct,0.828881377291623,5,S02,F,R,22,1
ChD_BB_v2,4,0,30,0,Correct,1.02859165400343,7,S02,F,R,22,4
ChD_BB_v2,4,0,31,0,Wrong,1.11846260972152,5,S02,F,R,22,3
ChD_BB_v2,4,0,32,1,Correct,0.788929628097435,5,S02,F,R,22,1
ChD_BB_v2,4,0,33,1,Correct,0.998633303432598,7,S02,F,R,22,1
ChD_BB_v2,4,0,34,0,Correct,1.23829567067105,7,S02,F,R,22,4
ChD_BB_v2,4,0,35,1,Correct,0.788927921433356,6,S02,F,R,22,1
ChD_BB_v2,4,0,36,1,Wrong,0.948702832925505,7,S02,F,R,22,2
ChD_BB_v2,4,0,37,1,Correct,0.878800583815973,7,S02,F,R,22,1
ChD_BB_v2,4,0,38,0,Wrong,1.46797180727538,6,S02,F,R,22,3
ChD_BB_v2,4,0,39,0,Correct,0.968678707522827,5,S02,F,R,22,4
ChD_BB_v2,4,0,40,0,Correct,0.778943738795761,6,S02,F,R,22,4
ChD_BB_v2,4,0,41,0,Correct,1.27824980919513,5,S02,F,R,22,4
ChD_BB_v2,4,0,42,1,Correct,0.758976738851743,5,S02,F,R,22,1
ChD_BB_v2,5,4,1,1,Correct,0.848844622575029,7,S02,F,R,22,1
ChD_BB_v2,5,4,2,1,Wrong,0.748985388224924,6,S02,F,R,22,2
ChD_BB_v2,5,4,3,1,Correct,1.29820929981702,5,S02,F,R,22,1
ChD_BB_v2,5,4,4,1,Wrong,0.778942032131681,7,S02,F,R,22,2
ChD_BB_v2,5,4,5,0,Correct,1.32816662638913,7,S02,F,R,22,4
ChD_BB_v2,5,4,6,1,Correct,0.479367742410886,6,S02,F,R,22,1
ChD_BB_v2,5,4,7,0,Correct,0.669098956477796,5,S02,F,R,22,4
ChD_BB_v2,5,4,8,0,Correct,1.25826574261032,6,S02,F,R,22,4
ChD_BB_v2,5,4,9,1,Correct,1.1284488403561,7,S02,F,R,22,1
ChD_BB_v2,5,4,10,0,Correct,0.669109537794725,6,S02,F,R,22,4
ChD_BB_v2,5,4,11,0,Correct,0.609184644665561,6,S02,F,R,22,4
ChD_BB_v2,5,4,12,0,Correct,1.37809641423041,5,S02,F,R,22,4
ChD_BB_v2,5,4,13,1,Correct,0.559253491493564,7,S02,F,R,22,1
ChD_BB_v2,5,4,14,0,Correct,1.19835791612195,7,S02,F,R,22,4
ChD_BB_v2,5,4,15,1,Wrong,0.978662207494608,5,S02,F,R,22,2
ChD_BB_v2,5,4,16,0,Correct,0.778944421461119,7,S02,F,R,22,4
ChD_BB_v2,5,4,17,1,Wrong,0.948703856924226,5,S02,F,R,22,2
ChD_BB_v2,5,4,18,0,Correct,0.729013950954936,7,S02,F,R,22,4
ChD_BB_v2,5,4,19,0,Correct,0.958690428891259,5,S02,F,R,22,4
ChD_BB_v2,5,4,20,1,Correct,0.579227318093444,7,S02,F,R,22,1
ChD_BB_v2,5,4,21,0,Wrong,1.03857617797348,6,S02,F,R,22,3
ChD_BB_v2,5,4,22,0,Correct,0.699058331046444,5,S02,F,R,22,4
ChD_BB_v2,5,4,23,0,Correct,0.98864673146511,7,S02,F,R,22,4
ChD_BB_v2,5,4,24,0,Wrong,1.1684043442109,5,S02,F,R,22,3
ChD_BB_v2,5,4,25,1,Correct,0.748991873548789,7,S02,F,R,22,1
ChD_BB_v2,5,4,26,0,Correct,1.2582882705758,5,S02,F,R,22,4
ChD_BB_v2,5,4,27,0,Wrong,1.20833629610195,7,S02,F,R,22,3
ChD_BB_v2,5,4,28,0,Correct,0.818887978668272,6,S02,F,R,22,4
ChD_BB_v2,5,4,29,1,Correct,0.649126153875727,7,S02,F,R,22,1
ChD_BB_v2,5,4,30,1,Correct,0.788929628097435,5,S02,F,R,22,1
ChD_BB_v2,5,4,31,1,Wrong,0.798914834733296,7,S02,F,R,22,2
ChD_BB_v2,5,4,32,1,Correct,0.888790227778259,6,S02,F,R,22,1
ChD_BB_v2,5,4,33,1,Wrong,1.06853452854432,6,S02,F,R,22,2
ChD_BB_v2,5,4,34,0,Wrong,1.15841265225163,6,S02,F,R,22,3
ChD_BB_v2,5,4,35,0,Wrong,1.08850664848057,5,S02,F,R,22,3
ChD_BB_v2,5,4,36,1,Correct,0.65911443250684,5,S02,F,R,22,1
ChD_BB_v2,5,4,37,1,Correct,0.84885008389972,6,S02,F,R,22,1
ChD_BB_v2,5,4,38,0,Correct,1.04856172594225,6,S02,F,R,22,4
ChD_BB_v2,5,4,39,1,Correct,0.978662207494608,6,S02,F,R,22,1
ChD_BB_v2,5,4,40,1,Correct,0.709043879015212,5,S02,F,R,22,1
ChD_BB_v2,5,4,41,0,Correct,1.25826881460603,6,S02,F,R,22,4
ChD_BB_v2,5,4,42,1,Correct,1.24828326663726,5,S02,F,R,22,1
ChD_BB_v2,6,4,1,1,Wrong,1.16839171489698,6,S02,F,R,22,2
ChD_BB_v2,6,4,2,0,Correct,0.679144811684182,6,S02,F,R,22,4
ChD_BB_v2,6,4,3,1,Correct,1.19835108946654,6,S02,F,R,22,1
ChD_BB_v2,6,4,4,1,Wrong,1.19834972413491,7,S02,F,R,22,2
ChD_BB_v2,6,4,5,0,Correct,1.28822375184825,6,S02,F,R,22,4
ChD_BB_v2,6,4,6,0,Correct,1.58779974823312,7,S02,F,R,22,4
ChD_BB_v2,6,4,7,0,Wrong,0.788928262766262,7,S02,F,R,22,3
ChD_BB_v2,6,4,8,1,Correct,1.54786779634162,6,S02,F,R,22,1
ChD_BB_v2,6,4,9,1,Wrong,0.788930652095701,6,S02,F,R,22,2
ChD_BB_v2,6,4,10,0,Correct,0.808900382702063,6,S02,F,R,22,4
ChD_BB_v2,6,4,11,1,Correct,0.519310275619318,5,S02,F,R,22,1
ChD_BB_v2,6,4,12,1,Correct,0.629155740603096,5,S02,F,R,22,1
ChD_BB_v2,6,4,13,1,Correct,0.729013950954482,5,S02,F,R,22,1
ChD_BB_v2,6,4,14,1,Wrong,1.06853452854432,7,S02,F,R,22,2
ChD_BB_v2,6,4,15,0,Wrong,1.05854761524438,5,S02,F,R,22,3
ChD_BB_v2,6,4,16,0,Correct,0.998632962100146,5,S02,F,R,22,4
ChD_BB_v2,6,4,17,0,Correct,0.938716943624286,5,S02,F,R,22,4
ChD_BB_v2,6,4,18,1,Correct,0.83886043993698,5,S02,F,R,22,1
ChD_BB_v2,6,4,19,0,Wrong,1.44799866334085,7,S02,F,R,22,3
ChD_BB_v2,6,4,20,1,Correct,1.0685335045456,5,S02,F,R,22,1
ChD_BB_v2,6,4,21,0,Correct,0.798914493400844,5,S02,F,R,22,4
ChD_BB_v2,6,4,22,0,Correct,1.3780957315646,5,S02,F,R,22,4
ChD_BB_v2,6,4,23,1,Correct,0.589210818065681,7,S02,F,R,22,1
ChD_BB_v2,6,4,24,0,Correct,1.11846704704794,6,S02,F,R,22,4
ChD_BB_v2,6,4,25,0,Correct,0.838858050607541,5,S02,F,R,22,4
ChD_BB_v2,6,4,26,1,Wrong,0.978661866161701,7,S02,F,R,22,2
ChD_BB_v2,6,4,27,0,Wrong,0.898777482411106,7,S02,F,R,22,3
ChD_BB_v2,6,4,28,0,Correct,0.669099980476062,6,S02,F,R,22,4
ChD_BB_v2,6,4,29,1,Correct,0.649141172519535,6,S02,F,R,22,1
ChD_BB_v2,6,4,30,1,Correct,0.729014292287388,5,S02,F,R,22,1
ChD_BB_v2,6,4,31,1,Correct,0.729013950954482,7,S02,F,R,22,1
ChD_BB_v2,6,4,32,1,Wrong,0.878800925148425,7,S02,F,R,22,2
ChD_BB_v2,6,4,33,0,Correct,1.0485675286003,7,S02,F,R,22,4
ChD_BB_v2,6,4,34,0,Correct,1.12844918168855,7,S02,F,R,22,4
ChD_BB_v2,6,4,35,0,Correct,0.988651851457348,7,S02,F,R,22,4
ChD_BB_v2,6,4,36,1,Correct,0.639218740004708,6,S02,F,R,22,1
ChD_BB_v2,6,4,37,1,Correct,0.758970253528332,5,S02,F,R,22,1
ChD_BB_v2,6,4,38,0,Correct,1.34814762097869,5,S02,F,R,22,4
ChD_BB_v2,6,4,39,0,Correct,0.838858391940448,6,S02,F,R,22,4
ChD_BB_v2,6,4,40,1,Correct,0.499349760999166,6,S02,F,R,22,1
ChD_BB_v2,6,4,41,0,Correct,0.988647414130924,7,S02,F,R,22,4
ChD_BB_v2,6,4,42,1,Correct,0.539281371556854,6,S02,F,R,22,1
ChD_BB_v2,7,7,1,0,Timeout,NaN,5,S02,F,R,22,0
ChD_BB_v2,7,7,2,1,Wrong,1.09849663377577,7,S02,F,R,22,2
ChD_BB_v2,7,7,3,0,Correct,0.778943056130402,7,S02,F,R,22,4
ChD_BB_v2,7,7,4,0,Correct,0.858830170543342,5,S02,F,R,22,4
ChD_BB_v2,7,7,5,0,Wrong,0.439421454542298,6,S02,F,R,22,3
ChD_BB_v2,7,7,6,0,Correct,0.958689063560087,6,S02,F,R,22,4
ChD_BB_v2,7,7,7,0,Correct,0.719028744318621,6,S02,F,R,22,4
ChD_BB_v2,7,7,8,1,Correct,0.499341569011222,6,S02,F,R,22,1
ChD_BB_v2,7,7,9,0,Correct,0.878802631812505,7,S02,F,R,22,4
ChD_BB_v2,7,7,10,0,Correct,1.1184646577185,5,S02,F,R,22,4
ChD_BB_v2,7,7,11,0,Correct,1.29820895848457,6,S02,F,R,22,4
ChD_BB_v2,7,7,12,1,Correct,0.928730712989704,5,S02,F,R,22,1
ChD_BB_v2,7,7,13,1,Correct,1.21832320940234,7,S02,F,R,22,1
ChD_BB_v2,7,7,14,0,Wrong,0.828872161305412,6,S02,F,R,22,3
ChD_BB_v2,7,7,15,0,Correct,1.3581294142864,5,S02,F,R,22,4
ChD_BB_v2,7,7,16,1,Correct,0.788929286764528,5,S02,F,R,22,1
ChD_BB_v2,7,7,17,1,Wrong,1.13843472965777,6,S02,F,R,22,2
ChD_BB_v2,7,7,18,1,Wrong,0.968674611529309,7,S02,F,R,22,2
ChD_BB_v2,7,7,19,0,Wrong,1.26825265591026,6,S02,F,R,22,3
ChD_BB_v2,7,7,20,1,Correct,0.719028402985714,5,S02,F,R,22,1
ChD_BB_v2,7,7,21,1,Wrong,1.04856104327689,7,S02,F,R,22,2
ChD_BB_v2,7,7,22,1,Wrong,1.23829430533988,7,S02,F,R,22,2
ChD_BB_v2,7,7,23,0,Wrong,1.16839410422688,5,S02,F,R,22,3
ChD_BB_v2,7,7,24,0,Correct,0.82887181997296,7,S02,F,R,22,4
ChD_BB_v2,7,7,25,0,Correct,0.8388587332729,5,S02,F,R,22,4
ChD_BB_v2,7,7,26,1,Wrong,0.709041148352867,6,S02,F,R,22,2
ChD_BB_v2,7,7,27,0,Wrong,0.858830853209156,5,S02,F,R,22,3
ChD_BB_v2,7,7,28,0,Wrong,0.669138892416072,6,S02,F,R,22,3
ChD_BB_v2,7,7,29,1,Correct,0.709042172351133,6,S02,F,R,22,1
ChD_BB_v2,7,7,30,0,Correct,0.838858391939993,7,S02,F,R,22,4
ChD_BB_v2,7,7,31,0,Correct,1.07852110051135,7,S02,F,R,22,4
ChD_BB_v2,7,7,32,0,Correct,0.968674270196402,7,S02,F,R,22,4
ChD_BB_v2,7,7,33,0,Correct,0.87880638647357,6,S02,F,R,22,4
ChD_BB_v2,7,7,34,1,Correct,0.639139923241146,5,S02,F,R,22,1
ChD_BB_v2,7,7,35,1,Correct,0.569242452790036,6,S02,F,R,22,1
ChD_BB_v2,7,7,36,1,Wrong,1.00861816873601,7,S02,F,R,22,2
ChD_BB_v2,7,7,37,1,Wrong,1.0485617259427,5,S02,F,R,22,2
ChD_BB_v2,7,7,38,1,Wrong,1.1284519123509,6,S02,F,R,22,2
ChD_BB_v2,7,7,39,1,Correct,0.998632279433878,5,S02,F,R,22,1
ChD_BB_v2,7,7,40,1,Correct,0.898773727750495,7,S02,F,R,22,1
ChD_BB_v2,7,7,41,1,Correct,0.868815377179658,7,S02,F,R,22,1
ChD_BB_v2,7,7,42,1,Correct,0.489351242383123,5,S02,F,R,22,1
ChD_BB_v2,8,7,1,1,Correct,1.04856240860806,5,S02,F,R,22,1
ChD_BB_v2,8,7,2,1,Correct,0.878801607814239,7,S02,F,R,22,1
ChD_BB_v2,8,7,3,0,Correct,0.928735832981488,6,S02,F,R,22,4
ChD_BB_v2,8,7,4,1,Correct,0.719029768316886,5,S02,F,R,22,1
ChD_BB_v2,8,7,5,1,Correct,0.659114773839292,6,S02,F,R,22,1
ChD_BB_v2,8,7,6,1,Correct,0.758973666856491,6,S02,F,R,22,1
ChD_BB_v2,8,7,7,0,Correct,0.768961945488059,6,S02,F,R,22,4
ChD_BB_v2,8,7,8,0,Wrong,1.47795496591471,7,S02,F,R,22,3
ChD_BB_v2,8,7,9,0,Correct,0.719028061652807,7,S02,F,R,22,4
ChD_BB_v2,8,7,10,1,Correct,0.639142312570584,7,S02,F,R,22,1
ChD_BB_v2,8,7,11,1,Correct,0.709051388336889,6,S02,F,R,22,1
ChD_BB_v2,8,7,12,1,Correct,0.639143336569305,5,S02,F,R,22,1
ChD_BB_v2,8,7,13,0,Wrong,0.958688722227635,5,S02,F,R,22,3
ChD_BB_v2,8,7,14,1,Correct,0.659113749841481,6,S02,F,R,22,1
ChD_BB_v2,8,7,15,1,Correct,1.16839376289397,5,S02,F,R,22,1
ChD_BB_v2,8,7,16,1,Correct,0.62915471660483,5,S02,F,R,22,1
ChD_BB_v2,8,7,17,1,Correct,0.669097249813262,5,S02,F,R,22,1
ChD_BB_v2,8,7,18,0,Correct,0.818886272004193,5,S02,F,R,22,4
ChD_BB_v2,8,7,19,1,Correct,0.589218668720264,5,S02,F,R,22,1
ChD_BB_v2,8,7,20,0,Correct,0.808900041369611,7,S02,F,R,22,4
ChD_BB_v2,8,7,21,0,Correct,0.589223106046688,6,S02,F,R,22,4
ChD_BB_v2,8,7,22,0,Correct,0.569336365751838,6,S02,F,R,22,4
ChD_BB_v2,8,7,23,0,Correct,0.699057307047724,5,S02,F,R,22,4
ChD_BB_v2,8,7,24,1,Correct,0.649126153875727,6,S02,F,R,22,1
ChD_BB_v2,8,7,25,1,Correct,0.749089921280415,7,S02,F,R,22,1
ChD_BB_v2,8,7,26,0,Correct,0.798917224063189,7,S02,F,R,22,4
ChD_BB_v2,8,7,27,0,Correct,1.13843609498895,5,S02,F,R,22,4
ChD_BB_v2,8,7,28,0,Wrong,0.779069170707089,6,S02,F,R,22,3
ChD_BB_v2,8,7,29,0,Correct,0.918749943680268,7,S02,F,R,22,4
ChD_BB_v2,8,7,30,1,Wrong,0.649126495208179,6,S02,F,R,22,2
ChD_BB_v2,8,7,31,0,Wrong,0.529295482255634,5,S02,F,R,22,3
ChD_BB_v2,8,7,32,0,Correct,0.739008032243646,7,S02,F,R,22,4
ChD_BB_v2,8,7,33,0,Correct,0.709049340340357,7,S02,F,R,22,4
ChD_BB_v2,8,7,34,1,Wrong,0.729050132232601,6,S02,F,R,22,2
ChD_BB_v2,8,7,35,0,Correct,0.938727866274121,7,S02,F,R,22,4
ChD_BB_v2,8,7,36,0,Correct,1.13843507099023,5,S02,F,R,22,4
ChD_BB_v2,8,7,37,1,Correct,0.679084845779016,5,S02,F,R,22,1
ChD_BB_v2,8,7,38,1,Correct,0.768974233469066,6,S02,F,R,22,1
ChD_BB_v2,8,7,39,0,Correct,1.02859233666879,7,S02,F,R,22,4
ChD_BB_v2,8,7,40,0,Correct,0.73900700824538,7,S02,F,R,22,4
ChD_BB_v2,8,7,41,1,Correct,0.738998474924983,6,S02,F,R,22,1
ChD_BB_v2,8,7,42,1,Correct,0.529301284913231,7,S02,F,R,22,1
ChD_BB_v2,9,0,1,1,Correct,0.719029768316886,6,S02,F,R,22,1
ChD_BB_v2,9,0,2,1,Correct,0.699054235052472,6,S02,F,R,22,1
ChD_BB_v2,9,0,3,0,Wrong,0.978663231493329,5,S02,F,R,22,3
ChD_BB_v2,9,0,4,0,Correct,0.589211842063946,6,S02,F,R,22,4
ChD_BB_v2,9,0,5,1,Wrong,0.918745506353389,6,S02,F,R,22,2
ChD_BB_v2,9,0,6,1,Correct,0.499338838348876,5,S02,F,R,22,1
ChD_BB_v2,9,0,7,0,Correct,1.25826574261077,5,S02,F,R,22,4
ChD_BB_v2,9,0,8,0,Correct,0.778942373464588,7,S02,F,R,22,4
ChD_BB_v2,9,0,9,1,Correct,0.489353290380109,5,S02,F,R,22,1
ChD_BB_v2,9,0,10,1,Correct,1.07851939384727,6,S02,F,R,22,1
ChD_BB_v2,9,0,11,1,Wrong,0.788928604099169,6,S02,F,R,22,2
ChD_BB_v2,9,0,12,0,Wrong,0.968674270196402,6,S02,F,R,22,3
ChD_BB_v2,9,0,13,0,Correct,0.739001205587783,5,S02,F,R,22,4
ChD_BB_v2,9,0,14,1,Correct,0.938725476944228,7,S02,F,R,22,1
ChD_BB_v2,9,0,15,1,Correct,0.818887296002458,7,S02,F,R,22,1
ChD_BB_v2,9,0,16,0,Wrong,1.13843438832487,6,S02,F,R,22,3
ChD_BB_v2,9,0,17,0,Correct,0.778944762794026,5,S02,F,R,22,4
ChD_BB_v2,9,0,18,0,Correct,0.928745390300605,5,S02,F,R,22,4
ChD_BB_v2,9,0,19,0,Wrong,0.689068345751252,5,S02,F,R,22,3
ChD_BB_v2,9,0,20,0,Correct,0.669097932479076,5,S02,F,R,22,4
ChD_BB_v2,9,0,21,1,Correct,0.739008032244101,5,S02,F,R,22,1
ChD_BB_v2,9,0,22,0,Correct,1.04856240860806,6,S02,F,R,22,4
ChD_BB_v2,9,0,23,1,Correct,0.758971618859505,7,S02,F,R,22,1
ChD_BB_v2,9,0,24,1,Correct,0.679095427096399,5,S02,F,R,22,1
ChD_BB_v2,9,0,25,1,Wrong,1.08851006180828,7,S02,F,R,22,2
ChD_BB_v2,9,0,26,1,Correct,0.778944080128667,6,S02,F,R,22,1
ChD_BB_v2,9,0,27,0,Correct,0.878801607813784,6,S02,F,R,22,4
ChD_BB_v2,9,0,28,1,Correct,0.729013609622029,6,S02,F,R,22,1
ChD_BB_v2,9,0,29,0,Wrong,0.858830170543342,7,S02,F,R,22,3
ChD_BB_v2,9,0,30,0,Correct,0.679083139114937,5,S02,F,R,22,4
ChD_BB_v2,9,0,31,1,Wrong,1.23829601200396,7,S02,F,R,22,2
ChD_BB_v2,9,0,32,0,Correct,0.699054917718286,7,S02,F,R,22,4
ChD_BB_v2,9,0,33,0,Correct,0.659112725843215,5,S02,F,R,22,4
ChD_BB_v2,9,0,34,1,Wrong,0.729012585623309,7,S02,F,R,22,2
ChD_BB_v2,9,0,35,0,Correct,0.609183961999747,7,S02,F,R,22,4
ChD_BB_v2,9,0,36,1,Correct,0.709042172351133,7,S02,F,R,22,1
ChD_BB_v2,9,0,37,1,Correct,0.758970594861239,7,S02,F,R,22,1
ChD_BB_v2,9,0,38,0,Correct,0.64912581254282,7,S02,F,R,22,4
ChD_BB_v2,9,0,39,0,Correct,0.729013268289123,6,S02,F,R,22,4
ChD_BB_v2,9,0,40,1,Correct,0.579229024757524,6,S02,F,R,22,1
ChD_BB_v2,9,0,41,0,Correct,0.758984930839233,5,S02,F,R,22,4
ChD_BB_v2,9,0,42,1,Correct,0.469379463779774,7,S02,F,R,22,1
ChD_BB_v2,1,4,1,0,Correct,1.02951428308128,5,S03,M,R,20,4
ChD_BB_v2,1,4,2,1,Correct,1.06950438442296,5,S03,M,R,20,1
ChD_BB_v2,1,4,3,1,Correct,0.989538517727142,5,S03,M,R,20,1
ChD_BB_v2,1,4,4,1,Correct,1.13945796312934,7,S03,M,R,20,1
ChD_BB_v2,1,4,5,1,Correct,2.24889544627604,7,S03,M,R,20,1
ChD_BB_v2,1,4,6,0,Correct,1.25940027784512,7,S03,M,R,20,4
ChD_BB_v2,1,4,7,1,Timeout,NaN,6,S03,M,R,20,0
ChD_BB_v2,1,4,8,1,Wrong,0.899581184357385,6,S03,M,R,20,2
ChD_BB_v2,1,4,9,0,Correct,0.869604736337337,7,S03,M,R,20,4
ChD_BB_v2,1,4,10,1,Correct,1.43931050725502,5,S03,M,R,20,1
ChD_BB_v2,1,4,11,1,Wrong,1.39932518457597,6,S03,M,R,20,2
ChD_BB_v2,1,4,12,0,Wrong,1.26939276851811,7,S03,M,R,20,3
ChD_BB_v2,1,4,13,1,Wrong,1.77913233140711,5,S03,M,R,20,2
ChD_BB_v2,1,4,14,0,Correct,0.989535104396709,6,S03,M,R,20,4
ChD_BB_v2,1,4,15,0,Correct,0.829618389658995,6,S03,M,R,20,4
ChD_BB_v2,1,4,16,1,Correct,0.769648085633717,5,S03,M,R,20,1
ChD_BB_v2,1,4,17,1,Correct,1.61921664066857,7,S03,M,R,20,1
ChD_BB_v2,1,4,18,1,Correct,1.12946444845706,6,S03,M,R,20,1
ChD_BB_v2,1,4,19,0,Correct,1.11946922711967,5,S03,M,R,20,4
ChD_BB_v2,1,4,20,0,Correct,0.999531008400254,6,S03,M,R,20,4
ChD_BB_v2,1,4,21,0,Correct,1.16944294447536,5,S03,M,R,20,4
ChD_BB_v2,1,4,22,0,Correct,1.00952827773599,7,S03,M,R,20,4
ChD_BB_v2,1,4,23,1,Correct,0.999530325734099,5,S03,M,R,20,1
ChD_BB_v2,1,4,24,0,Correct,0.989536128395885,6,S03,M,R,20,4
ChD_BB_v2,1,4,25,1,Correct,2.23889988360551,6,S03,M,R,20,1
ChD_BB_v2,1,4,26,1,Correct,0.829617706992954,5,S03,M,R,20,1
ChD_BB_v2,1,4,27,0,Correct,1.45929582993427,7,S03,M,R,20,4
ChD_BB_v2,1,4,28,0,Correct,1.92905348347441,7,S03,M,R,20,4
ChD_BB_v2,1,4,29,0,Correct,1.52926101396391,5,S03,M,R,20,4
ChD_BB_v2,1,4,30,0,Correct,0.749659008291019,6,S03,M,R,20,4
ChD_BB_v2,1,4,31,1,Wrong,1.18943372848327,7,S03,M,R,20,2
ChD_BB_v2,1,4,32,0,Correct,1.20942246449295,7,S03,M,R,20,4
ChD_BB_v2,1,4,33,0,Correct,0.759653546962368,7,S03,M,R,20,4
ChD_BB_v2,1,4,34,1,Correct,0.769647744300582,5,S03,M,R,20,1
ChD_BB_v2,1,4,35,1,Correct,0.839612928330344,6,S03,M,R,20,1
ChD_BB_v2,1,4,36,0,Wrong,1.23940744583908,7,S03,M,R,20,3
ChD_BB_v2,1,4,37,1,Correct,1.84909819810291,7,S03,M,R,20,1
ChD_BB_v2,1,4,38,0,Correct,1.23940778717199,5,S03,M,R,20,4
ChD_BB_v2,1,4,39,0,Correct,0.899580843024364,6,S03,M,R,20,4
ChD_BB_v2,1,4,40,1,Wrong,1.06949414443166,6,S03,M,R,20,2
ChD_BB_v2,1,4,41,0,Correct,0.889586304353015,6,S03,M,R,20,4
ChD_BB_v2,1,4,42,1,Correct,1.63920503534511,5,S03,M,R,20,1
ChD_BB_v2,2,0,1,0,Correct,1.79912345674804,7,S03,M,R,20,4
ChD_BB_v2,2,0,2,0,Correct,0.769648768299644,5,S03,M,R,20,4
ChD_BB_v2,2,0,3,0,Correct,0.659705088251694,6,S03,M,R,20,4
ChD_BB_v2,2,0,4,0,Correct,0.969552853714877,6,S03,M,R,20,4
ChD_BB_v2,2,0,5,1,Correct,0.589740928221108,5,S03,M,R,20,1
ChD_BB_v2,2,0,6,0,Correct,0.789638869641517,5,S03,M,R,20,4
ChD_BB_v2,2,0,7,1,Wrong,1.2194200751616,7,S03,M,R,20,2
ChD_BB_v2,2,0,8,0,Wrong,0.869598592342513,5,S03,M,R,20,3
ChD_BB_v2,2,0,9,1,Correct,1.63921117933994,6,S03,M,R,20,1
ChD_BB_v2,2,0,10,1,Wrong,0.749660714956235,5,S03,M,R,20,2
ChD_BB_v2,2,0,11,1,Correct,1.55924599531016,7,S03,M,R,20,1
ChD_BB_v2,2,0,12,0,Correct,1.65919377135468,7,S03,M,R,20,4
ChD_BB_v2,2,0,13,1,Correct,0.729668224283219,5,S03,M,R,20,1
ChD_BB_v2,2,0,14,0,Correct,0.879593813679903,7,S03,M,R,20,4
ChD_BB_v2,2,0,15,1,Correct,0.789641258972774,5,S03,M,R,20,1
ChD_BB_v2,2,0,16,0,Correct,0.889588693684386,5,S03,M,R,20,4
ChD_BB_v2,2,0,17,1,Correct,2.35884253965442,5,S03,M,R,20,1
ChD_BB_v2,2,0,18,0,Correct,0.899581525690405,5,S03,M,R,20,4
ChD_BB_v2,2,0,19,0,Correct,0.919571285699258,5,S03,M,R,20,4
ChD_BB_v2,2,0,20,1,Correct,2.28887087029693,6,S03,M,R,20,1
ChD_BB_v2,2,0,21,1,Wrong,0.739673344278772,7,S03,M,R,20,2
ChD_BB_v2,2,0,22,0,Correct,0.879593131013976,6,S03,M,R,20,4
ChD_BB_v2,2,0,23,0,Correct,0.909576747027795,7,S03,M,R,20,4
ChD_BB_v2,2,0,24,0,Wrong,1.0894924377666,6,S03,M,R,20,3
ChD_BB_v2,2,0,25,1,Correct,1.58922858732503,5,S03,M,R,20,1
ChD_BB_v2,2,0,26,1,Correct,1.24940369117564,7,S03,M,R,20,1
ChD_BB_v2,2,0,27,1,Correct,1.04950643242128,7,S03,M,R,20,1
ChD_BB_v2,2,0,28,0,Wrong,1.31936682720705,5,S03,M,R,20,3
ChD_BB_v2,2,0,29,0,Wrong,1.23941051783638,5,S03,M,R,20,3
ChD_BB_v2,2,0,30,1,Correct,0.939561387041017,6,S03,M,R,20,1
ChD_BB_v2,2,0,31,0,Correct,0.609730005563693,7,S03,M,R,20,4
ChD_BB_v2,2,0,32,1,Wrong,1.67918421402957,6,S03,M,R,20,2
ChD_BB_v2,2,0,33,1,Correct,0.889673038439282,6,S03,M,R,20,1
ChD_BB_v2,2,0,34,0,Correct,1.48927978728122,6,S03,M,R,20,4
ChD_BB_v2,2,0,35,1,Wrong,1.84909649143781,6,S03,M,R,20,2
ChD_BB_v2,2,0,36,0,Correct,0.919571285699258,7,S03,M,R,20,4
ChD_BB_v2,2,0,37,0,Correct,1.55924497131098,6,S03,M,R,20,4
ChD_BB_v2,2,0,38,1,Wrong,1.15945045380225,6,S03,M,R,20,2
ChD_BB_v2,2,0,39,1,Correct,0.979541589724422,6,S03,M,R,20,1
ChD_BB_v2,2,0,40,1,Correct,1.24940266717658,7,S03,M,R,20,1
ChD_BB_v2,2,0,41,1,Wrong,2.04907601145524,7,S03,M,R,20,2
ChD_BB_v2,2,0,42,0,Correct,1.30937194720257,7,S03,M,R,20,4
ChD_BB_v2,3,7,1,1,Correct,0.97954227239069,6,S03,M,R,20,1
ChD_BB_v2,3,7,2,0,Correct,1.94904426748221,6,S03,M,R,20,4
ChD_BB_v2,3,7,3,0,Wrong,1.59922312599615,7,S03,M,R,20,3
ChD_BB_v2,3,7,4,1,Correct,0.899583232355735,7,S03,M,R,20,1
ChD_BB_v2,3,7,5,0,Correct,0.759653546962254,6,S03,M,R,20,4
ChD_BB_v2,3,7,6,1,Correct,1.67918216603111,5,S03,M,R,20,1
ChD_BB_v2,3,7,7,1,Correct,0.949556608378407,5,S03,M,R,20,1
ChD_BB_v2,3,7,8,1,Correct,1.03950984575169,7,S03,M,R,20,1
ChD_BB_v2,3,7,9,1,Correct,0.819623168321605,6,S03,M,R,20,1
ChD_BB_v2,3,7,10,1,Correct,1.33935590454964,7,S03,M,R,20,1
ChD_BB_v2,3,7,11,0,Correct,0.809627605651194,7,S03,M,R,20,4
ChD_BB_v2,3,7,12,1,Correct,0.879591424348646,7,S03,M,R,20,1
ChD_BB_v2,3,7,13,0,Correct,2.43879338769631,5,S03,M,R,20,4
ChD_BB_v2,3,7,14,0,Correct,1.11947059245186,6,S03,M,R,20,4
ChD_BB_v2,3,7,15,1,Correct,0.969545344387971,5,S03,M,R,20,1
ChD_BB_v2,3,7,16,0,Correct,1.28940339694588,6,S03,M,R,20,4
ChD_BB_v2,3,7,17,0,Correct,0.819621802989523,5,S03,M,R,20,4
ChD_BB_v2,3,7,18,0,Correct,0.939562411040079,5,S03,M,R,20,4
ChD_BB_v2,3,7,19,1,Wrong,0.76965798429188,5,S03,M,R,20,2
ChD_BB_v2,3,7,20,1,Correct,1.25939891251281,6,S03,M,R,20,1
ChD_BB_v2,3,7,21,1,Correct,0.969545344387971,6,S03,M,R,20,1
ChD_BB_v2,3,7,22,1,Wrong,0.819624874986821,7,S03,M,R,20,2
ChD_BB_v2,3,7,23,1,Wrong,2.05899579819032,7,S03,M,R,20,2
ChD_BB_v2,3,7,24,1,Correct,0.969545003054836,7,S03,M,R,20,1
ChD_BB_v2,3,7,25,0,Correct,0.919571968365071,6,S03,M,R,20,4
ChD_BB_v2,3,7,26,1,Correct,0.839611221665127,5,S03,M,R,20,1
ChD_BB_v2,3,7,27,1,Correct,0.959550123050467,5,S03,M,R,20,1
ChD_BB_v2,3,7,28,0,Correct,1.31936785120612,7,S03,M,R,20,4
ChD_BB_v2,3,7,29,0,Wrong,2.17896064088681,7,S03,M,R,20,3
ChD_BB_v2,3,7,30,1,Correct,1.94904324348327,7,S03,M,R,20,1
ChD_BB_v2,3,7,31,0,Correct,0.719674026944776,5,S03,M,R,20,4
ChD_BB_v2,3,7,32,1,Correct,0.949557291044448,5,S03,M,R,20,1
ChD_BB_v2,3,7,33,0,Correct,1.00952725373671,6,S03,M,R,20,4
ChD_BB_v2,3,7,34,0,Correct,0.789637845642455,7,S03,M,R,20,4
ChD_BB_v2,3,7,35,0,Correct,1.60921868866656,5,S03,M,R,20,4
ChD_BB_v2,3,7,36,0,Correct,0.779642965637859,6,S03,M,R,20,4
ChD_BB_v2,3,7,37,0,Correct,0.719673002945829,5,S03,M,R,20,4
ChD_BB_v2,3,7,38,1,Correct,0.629722837569843,6,S03,M,R,20,1
ChD_BB_v2,3,7,39,0,Wrong,1.48928149394666,6,S03,M,R,20,3
ChD_BB_v2,3,7,40,0,Correct,1.61921391000406,5,S03,M,R,20,4
ChD_BB_v2,3,7,41,0,Correct,0.839615317661828,7,S03,M,R,20,4
ChD_BB_v2,3,7,42,1,Correct,1.67918455536259,6,S03,M,R,20,1
ChD_BB_v2,4,0,1,1,Correct,0.769649109632665,7,S03,M,R,20,1
ChD_BB_v2,4,0,2,0,Correct,1.03951052841773,5,S03,M,R,20,4
ChD_BB_v2,4,0,3,0,Correct,0.759664469619593,5,S03,M,R,20,4
ChD_BB_v2,4,0,4,1,Correct,0.839612245664075,7,S03,M,R,20,1
ChD_BB_v2,4,0,5,1,Correct,1.29938013919573,7,S03,M,R,20,1
ChD_BB_v2,4,0,6,1,Wrong,1.95903914748681,5,S03,M,R,20,2
ChD_BB_v2,4,0,7,0,Correct,1.1994279258216,6,S03,M,R,20,4
ChD_BB_v2,4,0,8,1,Correct,2.35883434766159,6,S03,M,R,20,1
ChD_BB_v2,4,0,9,0,Correct,1.46929139260456,7,S03,M,R,20,4
ChD_BB_v2,4,0,10,1,Correct,0.789637504309549,6,S03,M,R,20,1
ChD_BB_v2,4,0,11,0,Correct,0.929567531035709,6,S03,M,R,20,4
ChD_BB_v2,4,0,12,0,Correct,1.2194200751616,6,S03,M,R,20,4
ChD_BB_v2,4,0,13,1,Correct,0.779646037635384,6,S03,M,R,20,1
ChD_BB_v2,4,0,14,0,Correct,0.759653205629347,7,S03,M,R,20,4
ChD_BB_v2,4,0,15,0,Correct,0.69968324293709,5,S03,M,R,20,4
ChD_BB_v2,4,0,16,0,Wrong,0.699684608269172,5,S03,M,R,20,3
ChD_BB_v2,4,0,17,1,Correct,0.859611221664936,7,S03,M,R,20,1
ChD_BB_v2,4,0,18,0,Correct,0.659703722919385,7,S03,M,R,20,4
ChD_BB_v2,4,0,19,0,Wrong,2.1689309449123,7,S03,M,R,20,3
ChD_BB_v2,4,0,20,1,Wrong,1.2793876485226,6,S03,M,R,20,2
ChD_BB_v2,4,0,21,1,Correct,0.87959176568178,5,S03,M,R,20,1
ChD_BB_v2,4,0,22,1,Correct,0.849607125668672,5,S03,M,R,20,1
ChD_BB_v2,4,0,23,0,Wrong,0.959551829715911,7,S03,M,R,20,3
ChD_BB_v2,4,0,24,1,Wrong,0.649711573579407,6,S03,M,R,20,2
ChD_BB_v2,4,0,25,0,Correct,0.729668224283105,6,S03,M,R,20,4
ChD_BB_v2,4,0,26,0,Correct,1.58922824599201,5,S03,M,R,20,4
ChD_BB_v2,4,0,27,0,Correct,1.25939959517907,7,S03,M,R,20,4
ChD_BB_v2,4,0,28,0,Wrong,1.099478784445,7,S03,M,R,20,3
ChD_BB_v2,4,0,29,0,Correct,1.15944908847016,6,S03,M,R,20,4
ChD_BB_v2,4,0,30,1,Correct,1.30937467786696,5,S03,M,R,20,1
ChD_BB_v2,4,0,31,1,Correct,0.869599275008668,5,S03,M,R,20,1
ChD_BB_v2,4,0,32,1,Wrong,1.01958835235137,6,S03,M,R,20,2
ChD_BB_v2,4,0,33,1,Wrong,1.2194170031643,6,S03,M,R,20,2
ChD_BB_v2,4,0,34,1,Wrong,0.769648426966851,7,S03,M,R,20,2
ChD_BB_v2,4,0,35,0,Wrong,1.85908932344371,5,S03,M,R,20,3
ChD_BB_v2,4,0,36,1,Correct,1.669187968693,7,S03,M,R,20,1
ChD_BB_v2,4,0,37,1,Correct,0.819626240318903,5,S03,M,R,20,1
ChD_BB_v2,4,0,38,0,Correct,0.669700992255011,5,S03,M,R,20,4
ChD_BB_v2,4,0,39,1,Correct,1.29938560052428,6,S03,M,R,20,1
ChD_BB_v2,4,0,40,0,Correct,0.709678805607273,7,S03,M,R,20,4
ChD_BB_v2,4,0,41,1,Correct,0.959550464383601,5,S03,M,R,20,1
ChD_BB_v2,4,0,42,0,Correct,2.21890500360124,6,S03,M,R,20,4
ChD_BB_v2,5,7,1,1,Correct,0.999532373732336,5,S03,M,R,20,1
ChD_BB_v2,5,7,2,0,Correct,0.969555584379268,7,S03,M,R,20,4
ChD_BB_v2,5,7,3,0,Correct,1.70916748871048,6,S03,M,R,20,4
ChD_BB_v2,5,7,4,0,Correct,0.949557291044448,7,S03,M,R,20,4
ChD_BB_v2,5,7,5,1,Correct,0.489792810843455,5,S03,M,R,20,1
ChD_BB_v2,5,7,6,1,Correct,0.899580501691344,5,S03,M,R,20,1
ChD_BB_v2,5,7,7,1,Wrong,1.29937774986447,5,S03,M,R,20,2
ChD_BB_v2,5,7,8,1,Wrong,1.35934566455838,5,S03,M,R,20,2
ChD_BB_v2,5,7,9,1,Correct,0.959550464383601,7,S03,M,R,20,1
ChD_BB_v2,5,7,10,0,Correct,0.949556267045273,6,S03,M,R,20,4
ChD_BB_v2,5,7,11,1,Correct,0.939562069706944,6,S03,M,R,20,1
ChD_BB_v2,5,7,12,1,Correct,1.27938696585633,7,S03,M,R,20,1
ChD_BB_v2,5,7,13,1,Correct,0.939561728374038,6,S03,M,R,20,1
ChD_BB_v2,5,7,14,1,Correct,1.24940198451031,6,S03,M,R,20,1
ChD_BB_v2,5,7,15,0,Correct,1.23944328580862,6,S03,M,R,20,4
ChD_BB_v2,5,7,16,0,Wrong,0.749659349623926,7,S03,M,R,20,3
ChD_BB_v2,5,7,17,0,Correct,0.959550123050467,5,S03,M,R,20,4
ChD_BB_v2,5,7,18,0,Correct,1.57924462997788,5,S03,M,R,20,4
ChD_BB_v2,5,7,19,0,Correct,0.699685973601254,6,S03,M,R,20,4
ChD_BB_v2,5,7,20,0,Correct,0.899591083015548,7,S03,M,R,20,4
ChD_BB_v2,5,7,21,0,Correct,1.20946103512654,7,S03,M,R,20,4
ChD_BB_v2,5,7,22,1,Wrong,0.559754922875691,7,S03,M,R,20,2
ChD_BB_v2,5,7,23,1,Correct,0.729668224283105,5,S03,M,R,20,1
ChD_BB_v2,5,7,24,0,Timeout,NaN,5,S03,M,R,20,0
ChD_BB_v2,5,7,25,0,Wrong,0.709679488273541,6,S03,M,R,20,3
ChD_BB_v2,5,7,26,1,Correct,0.63971430424378,7,S03,M,R,20,1
ChD_BB_v2,5,7,27,0,Correct,0.479796224174097,5,S03,M,R,20,4
ChD_BB_v2,5,7,28,0,Correct,0.919577771026989,5,S03,M,R,20,4
ChD_BB_v2,5,7,29,1,Correct,1.11946922711955,6,S03,M,R,20,1
ChD_BB_v2,5,7,30,0,Correct,0.779643306970993,7,S03,M,R,20,4
ChD_BB_v2,5,7,31,1,Wrong,1.41931494458459,5,S03,M,R,20,2
ChD_BB_v2,5,7,32,1,Correct,0.809635797644141,7,S03,M,R,20,1
ChD_BB_v2,5,7,33,1,Correct,1.62920879000843,7,S03,M,R,20,1
ChD_BB_v2,5,7,34,0,Correct,0.969548757718403,6,S03,M,R,20,4
ChD_BB_v2,5,7,35,0,Correct,0.669699626922929,5,S03,M,R,20,4
ChD_BB_v2,5,7,36,0,Correct,2.32885243831264,6,S03,M,R,20,4
ChD_BB_v2,5,7,37,1,Correct,1.86908488611435,7,S03,M,R,20,1
ChD_BB_v2,5,7,38,0,Correct,0.629719424239411,6,S03,M,R,20,4
ChD_BB_v2,5,7,39,1,Correct,0.809636480310182,7,S03,M,R,20,1
ChD_BB_v2,5,7,40,0,Wrong,0.969546027054012,6,S03,M,R,20,3
ChD_BB_v2,5,7,41,1,Wrong,1.26939345118427,6,S03,M,R,20,2
ChD_BB_v2,5,7,42,1,Correct,0.839613269663478,5,S03,M,R,20,1
ChD_BB_v2,6,7,1,0,Correct,1.7991200434175,5,S03,M,R,20,4
ChD_BB_v2,6,7,2,0,Wrong,1.34935010188797,7,S03,M,R,20,3
ChD_BB_v2,6,7,3,0,Correct,2.04899238486009,7,S03,M,R,20,4
ChD_BB_v2,6,7,4,0,Correct,1.74914803272713,6,S03,M,R,20,4
ChD_BB_v2,6,7,5,0,Wrong,1.17943748314659,6,S03,M,R,20,3
ChD_BB_v2,6,7,6,1,Correct,0.669698602923754,7,S03,M,R,20,1
ChD_BB_v2,6,7,7,1,Correct,0.689689386931668,5,S03,M,R,20,1
ChD_BB_v2,6,7,8,1,Correct,0.969546709720053,5,S03,M,R,20,1
ChD_BB_v2,6,7,9,0,Wrong,0.999533056398377,6,S03,M,R,20,3
ChD_BB_v2,6,7,10,1,Correct,0.83961326966325,7,S03,M,R,20,1
ChD_BB_v2,6,7,11,1,Wrong,1.40932040591336,5,S03,M,R,20,2
ChD_BB_v2,6,7,12,0,Correct,1.47928490727685,6,S03,M,R,20,4
ChD_BB_v2,6,7,13,0,Correct,0.739663445620608,6,S03,M,R,20,4
ChD_BB_v2,6,7,14,1,Correct,1.82910809676104,6,S03,M,R,20,1
ChD_BB_v2,6,7,15,0,Correct,0.779642624304952,7,S03,M,R,20,4
ChD_BB_v2,6,7,16,0,Correct,0.969582891022728,6,S03,M,R,20,4
ChD_BB_v2,6,7,17,0,Wrong,0.859602005673041,7,S03,M,R,20,3
ChD_BB_v2,6,7,18,1,Correct,0.719673344278735,7,S03,M,R,20,1
ChD_BB_v2,6,7,19,0,Correct,0.869597227010318,7,S03,M,R,20,4
ChD_BB_v2,6,7,20,0,Wrong,0.849608491000754,5,S03,M,R,20,3
ChD_BB_v2,6,7,21,0,Correct,1.84909785676978,7,S03,M,R,20,4
ChD_BB_v2,6,7,22,0,Wrong,0.749658325624978,7,S03,M,R,20,3
ChD_BB_v2,6,7,23,1,Correct,1.22941222450158,5,S03,M,R,20,1
ChD_BB_v2,6,7,24,1,Wrong,0.839614976328467,6,S03,M,R,20,2
ChD_BB_v2,6,7,25,0,Wrong,1.26939242718509,7,S03,M,R,20,3
ChD_BB_v2,6,7,26,1,Correct,1.50926886462392,5,S03,M,R,20,1
ChD_BB_v2,6,7,27,0,Correct,0.729668906949373,5,S03,M,R,20,4
ChD_BB_v2,6,7,28,0,Wrong,1.81911082742541,5,S03,M,R,20,3
ChD_BB_v2,6,7,29,0,Correct,0.529808170830474,5,S03,M,R,20,4
ChD_BB_v2,6,7,30,0,Correct,1.96903368615805,6,S03,M,R,20,4
ChD_BB_v2,6,7,31,1,Wrong,1.86908625144643,5,S03,M,R,20,2
ChD_BB_v2,6,7,32,1,Correct,1.46929207527061,6,S03,M,R,20,1
ChD_BB_v2,6,7,33,1,Correct,1.24940266717658,6,S03,M,R,20,1
ChD_BB_v2,6,7,34,1,Correct,0.909576064361982,7,S03,M,R,20,1
ChD_BB_v2,6,7,35,1,Correct,0.629729322897801,5,S03,M,R,20,1
ChD_BB_v2,6,7,36,1,Correct,0.699684266936038,5,S03,M,R,20,1
ChD_BB_v2,6,7,37,1,Timeout,NaN,7,S03,M,R,20,0
ChD_BB_v2,6,7,38,1,Correct,0.829617365659933,6,S03,M,R,20,1
ChD_BB_v2,6,7,39,0,Wrong,1.96903709948848,6,S03,M,R,20,3
ChD_BB_v2,6,7,40,1,Correct,1.42931221392022,6,S03,M,R,20,1
ChD_BB_v2,6,7,41,1,Correct,1.16944635780579,7,S03,M,R,20,1
ChD_BB_v2,6,7,42,1,Correct,1.19942724315556,5,S03,M,R,20,1
ChD_BB_v2,7,0,1,1,Wrong,0.829620096324325,7,S03,M,R,20,2
ChD_BB_v2,7,0,2,0,Correct,0.599736490891519,5,S03,M,R,20,4
ChD_BB_v2,7,0,3,0,Wrong,0.819622485655336,7,S03,M,R,20,3
ChD_BB_v2,7,0,4,0,Wrong,1.1994309978189,7,S03,M,R,20,3
ChD_BB_v2,7,0,5,1,Correct,1.3293644378757,6,S03,M,R,20,1
ChD_BB_v2,7,0,6,1,Wrong,0.559755946874866,7,S03,M,R,20,2
ChD_BB_v2,7,0,7,0,Correct,0.939560363041956,5,S03,M,R,20,4
ChD_BB_v2,7,0,8,0,Correct,0.66970030958897,6,S03,M,R,20,4
ChD_BB_v2,7,0,9,0,Correct,0.999529984401079,5,S03,M,R,20,4
ChD_BB_v2,7,0,10,1,Correct,0.709683584270015,5,S03,M,R,20,1
ChD_BB_v2,7,0,11,0,Correct,0.709680512272716,5,S03,M,R,20,4
ChD_BB_v2,7,0,12,0,Wrong,0.919613269663396,6,S03,M,R,20,3
ChD_BB_v2,7,0,13,0,Correct,1.30937126453653,6,S03,M,R,20,4
ChD_BB_v2,7,0,14,0,Wrong,0.739665493618732,7,S03,M,R,20,3
ChD_BB_v2,7,0,15,1,Correct,1.3993258672419,7,S03,M,R,20,1
ChD_BB_v2,7,0,16,0,Correct,1.37933678989943,6,S03,M,R,20,4
ChD_BB_v2,7,0,17,1,Correct,1.21941905116242,7,S03,M,R,20,1
ChD_BB_v2,7,0,18,0,Correct,1.36934190989506,5,S03,M,R,20,4
ChD_BB_v2,7,0,19,0,Wrong,1.4393043632602,5,S03,M,R,20,3
ChD_BB_v2,7,0,20,0,Correct,0.929575040362615,7,S03,M,R,20,4
ChD_BB_v2,7,0,21,0,Correct,1.84910229409961,6,S03,M,R,20,4
ChD_BB_v2,7,0,22,1,Correct,1.10947502978145,5,S03,M,R,20,1
ChD_BB_v2,7,0,23,1,Wrong,1.57923302465473,7,S03,M,R,20,2
ChD_BB_v2,7,0,24,1,Correct,1.65919240602259,5,S03,M,R,20,1
ChD_BB_v2,7,0,25,1,Wrong,0.769649109632892,6,S03,M,R,20,2
ChD_BB_v2,7,0,26,1,Correct,0.84969826159072,6,S03,M,R,20,1
ChD_BB_v2,7,0,27,1,Correct,0.909576405694888,5,S03,M,R,20,1
ChD_BB_v2,7,0,28,1,Wrong,1.65919240602237,7,S03,M,R,20,2
ChD_BB_v2,7,0,29,1,Correct,0.63971430424378,6,S03,M,R,20,1
ChD_BB_v2,7,0,30,1,Correct,0.87959176568178,7,S03,M,R,20,1
ChD_BB_v2,7,0,31,0,Correct,1.2993767258653,6,S03,M,R,20,4
ChD_BB_v2,7,0,32,0,Correct,1.1294651311231,6,S03,M,R,20,4
ChD_BB_v2,7,0,33,0,Correct,0.809627605650967,5,S03,M,R,20,4
ChD_BB_v2,7,0,34,1,Correct,0.639714645576914,5,S03,M,R,20,1
ChD_BB_v2,7,0,35,1,Correct,1.3093719472028,7,S03,M,R,20,1
ChD_BB_v2,7,0,36,1,Wrong,2.23890261427002,6,S03,M,R,20,2
ChD_BB_v2,7,0,37,1,Correct,1.94904324348327,5,S03,M,R,20,1
ChD_BB_v2,7,0,38,1,Correct,0.839612586997209,7,S03,M,R,20,1
ChD_BB_v2,7,0,39,0,Correct,0.609730005563806,7,S03,M,R,20,4
ChD_BB_v2,7,0,40,0,Correct,0.649710208247325,5,S03,M,R,20,4
ChD_BB_v2,7,0,41,1,Correct,0.779643648304127,6,S03,M,R,20,1
ChD_BB_v2,7,0,42,0,Correct,0.939562069706944,6,S03,M,R,20,4
ChD_BB_v2,8,4,1,1,Wrong,0.779644330970168,5,S03,M,R,20,2
ChD_BB_v2,8,4,2,0,Correct,0.799632725646825,5,S03,M,R,20,4
ChD_BB_v2,8,4,3,0,Correct,0.669711914912577,7,S03,M,R,20,4
ChD_BB_v2,8,4,4,1,Correct,0.72966958961496,5,S03,M,R,20,1
ChD_BB_v2,8,4,5,0,Correct,1.22941256583471,5,S03,M,R,20,4
ChD_BB_v2,8,4,6,0,Correct,1.17959413179373,7,S03,M,R,20,4
ChD_BB_v2,8,4,7,0,Correct,1.0395101870846,6,S03,M,R,20,4
ChD_BB_v2,8,4,8,0,Wrong,0.879594837679306,6,S03,M,R,20,3
ChD_BB_v2,8,4,9,0,Correct,0.879595179012213,6,S03,M,R,20,4
ChD_BB_v2,8,4,10,0,Timeout,NaN,5,S03,M,R,20,0
ChD_BB_v2,8,4,11,0,Correct,1.61921254467221,6,S03,M,R,20,4
ChD_BB_v2,8,4,12,1,Correct,0.969547051053187,6,S03,M,R,20,1
ChD_BB_v2,8,4,13,1,Correct,1.03950950441833,5,S03,M,R,20,1
ChD_BB_v2,8,4,14,1,Correct,1.52925998996497,5,S03,M,R,20,1
ChD_BB_v2,8,4,15,1,Correct,0.809638869641667,6,S03,M,R,20,1
ChD_BB_v2,8,4,16,0,Correct,2.06898897152924,6,S03,M,R,20,4
ChD_BB_v2,8,4,17,0,Correct,1.96903436882431,7,S03,M,R,20,4
ChD_BB_v2,8,4,18,0,Wrong,1.12946956845225,7,S03,M,R,20,3
ChD_BB_v2,8,4,19,0,Correct,1.32936341387675,7,S03,M,R,20,4
ChD_BB_v2,8,4,20,1,Correct,1.48927842194914,7,S03,M,R,20,1
ChD_BB_v2,8,4,21,0,Correct,1.90906577146391,5,S03,M,R,20,4
ChD_BB_v2,8,4,22,1,Correct,1.61921459267011,5,S03,M,R,20,1
ChD_BB_v2,8,4,23,1,Correct,1.07949141376706,7,S03,M,R,20,1
ChD_BB_v2,8,4,24,1,Wrong,1.04951803774443,6,S03,M,R,20,2
ChD_BB_v2,8,4,25,1,Correct,0.899583232355508,5,S03,M,R,20,1
ChD_BB_v2,8,4,26,1,Correct,0.679695189593112,5,S03,M,R,20,1
ChD_BB_v2,8,4,27,1,Correct,1.27939686451449,7,S03,M,R,20,1
ChD_BB_v2,8,4,28,1,Correct,1.25939754718072,7,S03,M,R,20,1
ChD_BB_v2,8,4,29,0,Correct,0.71967470961059,6,S03,M,R,20,4
ChD_BB_v2,8,4,30,1,Correct,0.7096788056075,6,S03,M,R,20,1
ChD_BB_v2,8,4,31,1,Correct,0.649710890913366,5,S03,M,R,20,1
ChD_BB_v2,8,4,32,0,Correct,1.51926681662559,6,S03,M,R,20,4
ChD_BB_v2,8,4,33,0,Wrong,0.639714645576914,7,S03,M,R,20,3
ChD_BB_v2,8,4,34,0,Correct,1.62920844867575,5,S03,M,R,20,4
ChD_BB_v2,8,4,35,1,Correct,1.0595002884267,7,S03,M,R,20,1
ChD_BB_v2,8,4,36,0,Wrong,1.43931630991694,7,S03,M,R,20,3
ChD_BB_v2,8,4,37,1,Correct,1.24940266717635,6,S03,M,R,20,1
ChD_BB_v2,8,4,38,0,Correct,1.22941632049805,7,S03,M,R,20,4
ChD_BB_v2,8,4,39,0,Correct,1.53925725930059,6,S03,M,R,20,4
ChD_BB_v2,8,4,40,1,Correct,0.929566507036534,5,S03,M,R,20,1
ChD_BB_v2,8,4,41,1,Correct,2.268885206285,7,S03,M,R,20,1
ChD_BB_v2,8,4,42,1,Correct,0.649713280244623,6,S03,M,R,20,1
ChD_BB_v2,9,4,1,0,Wrong,1.73915178739046,7,S03,M,R,20,3
ChD_BB_v2,9,4,2,0,Correct,1.14945318446639,5,S03,M,R,20,4
ChD_BB_v2,9,4,3,0,Correct,1.34935146722005,6,S03,M,R,20,4
ChD_BB_v2,9,4,4,1,Correct,0.669699626922929,7,S03,M,R,20,1
ChD_BB_v2,9,4,5,1,Wrong,2.01901013417779,7,S03,M,R,20,2
ChD_BB_v2,9,4,6,0,Correct,1.39932689124107,7,S03,M,R,20,4
ChD_BB_v2,9,4,7,1,Correct,1.48927944594831,6,S03,M,R,20,1
ChD_BB_v2,9,4,8,1,Wrong,0.949555925712366,6,S03,M,R,20,2
ChD_BB_v2,9,4,9,1,Correct,0.88959074168285,5,S03,M,R,20,1
ChD_BB_v2,9,4,10,1,Correct,0.699684266936038,6,S03,M,R,20,1
ChD_BB_v2,9,4,11,0,Correct,1.3293610245455,5,S03,M,R,20,4
ChD_BB_v2,9,4,12,1,Correct,1.01951974440959,5,S03,M,R,20,1
ChD_BB_v2,9,4,13,0,Correct,0.899581184357612,5,S03,M,R,20,4
ChD_BB_v2,9,4,14,0,Correct,0.859603371005123,6,S03,M,R,20,4
ChD_BB_v2,9,4,15,1,Wrong,1.44930094992956,6,S03,M,R,20,2
ChD_BB_v2,9,4,16,0,Correct,0.669701333588373,6,S03,M,R,20,4
ChD_BB_v2,9,4,17,0,Correct,0.709680853605851,7,S03,M,R,20,4
ChD_BB_v2,9,4,18,0,Correct,0.989552512382006,6,S03,M,R,20,4
ChD_BB_v2,9,4,19,1,Correct,1.52926749929165,5,S03,M,R,20,1
ChD_BB_v2,9,4,20,1,Correct,0.669709184247959,7,S03,M,R,20,1
ChD_BB_v2,9,4,21,0,Wrong,1.38933064590462,6,S03,M,R,20,3
ChD_BB_v2,9,4,22,1,Correct,0.659706453584004,5,S03,M,R,20,1
ChD_BB_v2,9,4,23,1,Correct,0.559759018872392,5,S03,M,R,20,1
ChD_BB_v2,9,4,24,1,Correct,0.779643989637261,7,S03,M,R,20,1
ChD_BB_v2,9,4,25,1,Wrong,0.75965866695813,5,S03,M,R,20,2
ChD_BB_v2,9,4,26,1,Wrong,0.74965969095706,7,S03,M,R,20,2
ChD_BB_v2,9,4,27,0,Correct,0.699692800262346,7,S03,M,R,20,4
ChD_BB_v2,9,4,28,0,Wrong,0.979543637722545,6,S03,M,R,20,3
ChD_BB_v2,9,4,29,0,Correct,1.39932825657315,6,S03,M,R,20,4
ChD_BB_v2,9,4,30,1,Correct,1.3693419098946,7,S03,M,R,20,1
ChD_BB_v2,9,4,31,0,Wrong,1.07949073110125,5,S03,M,R,20,3
ChD_BB_v2,9,4,32,0,Correct,0.929566507036534,6,S03,M,R,20,4
ChD_BB_v2,9,4,33,0,Wrong,0.959585963019781,5,S03,M,R,20,3
ChD_BB_v2,9,4,34,1,Wrong,0.909576747027795,6,S03,M,R,20,2
ChD_BB_v2,9,4,35,0,Wrong,1.0694944857648,7,S03,M,R,20,3
ChD_BB_v2,9,4,36,1,Correct,0.879591083015512,5,S03,M,R,20,1
ChD_BB_v2,9,4,37,1,Correct,1.10947537111481,5,S03,M,R,20,1
ChD_BB_v2,9,4,38,0,Correct,0.919571285698803,5,S03,M,R,20,4
ChD_BB_v2,9,4,39,0,Correct,1.49927432595268,7,S03,M,R,20,4
ChD_BB_v2,9,4,40,1,Wrong,0.939561045707997,7,S03,M,R,20,2
ChD_BB_v2,9,4,41,1,Wrong,1.54924906730744,6,S03,M,R,20,2
ChD_BB_v2,9,4,42,0,Wrong,1.03955524304649,7,S03,M,R,20,3
ChD_BB_v2,1,0,1,1,Wrong,1.48066140786228,5,S04,F,R,22,2
ChD_BB_v2,1,0,2,0,Wrong,1.46079356084285,6,S04,F,R,22,3
ChD_BB_v2,1,0,3,0,Correct,0.850395229529408,5,S04,F,R,22,4
ChD_BB_v2,1,0,4,0,Correct,0.710338581897663,5,S04,F,R,22,4
ChD_BB_v2,1,0,5,0,Correct,0.980449440043126,7,S04,F,R,22,4
ChD_BB_v2,1,0,6,1,Correct,0.570283299598341,5,S04,F,R,22,1
ChD_BB_v2,1,0,7,0,Correct,0.74035374391156,6,S04,F,R,22,4
ChD_BB_v2,1,0,8,1,Correct,1.29057892131935,5,S04,F,R,22,1
ChD_BB_v2,1,0,9,1,Correct,0.970444954926975,6,S04,F,R,22,1
ChD_BB_v2,1,0,10,1,Correct,0.810383433059515,6,S04,F,R,22,1
ChD_BB_v2,1,0,11,0,Correct,0.780366905713536,5,S04,F,R,22,4
ChD_BB_v2,1,0,12,0,Correct,1.32059749666345,7,S04,F,R,22,4
ChD_BB_v2,1,0,13,1,Correct,0.800375534612817,6,S04,F,R,22,1
ChD_BB_v2,1,0,14,0,Correct,1.29057960398539,7,S04,F,R,22,4
ChD_BB_v2,1,0,15,0,Wrong,1.14051574057321,6,S04,F,R,22,3
ChD_BB_v2,1,0,16,0,Correct,0.860513719881574,6,S04,F,R,22,4
ChD_BB_v2,1,0,17,0,Wrong,1.21054440572211,7,S04,F,R,22,3
ChD_BB_v2,1,0,18,0,Wrong,1.60070976792754,6,S04,F,R,22,3
ChD_BB_v2,1,0,19,0,Correct,0.740361253238352,7,S04,F,R,22,4
ChD_BB_v2,1,0,20,0,Correct,2.39103268946547,7,S04,F,R,22,4
ChD_BB_v2,1,0,21,1,Wrong,1.01046084739346,5,S04,F,R,22,2
ChD_BB_v2,1,0,22,1,Wrong,0.800396014595413,7,S04,F,R,22,2
ChD_BB_v2,1,0,23,1,Wrong,0.770363103263426,7,S04,F,R,22,2
ChD_BB_v2,1,0,24,0,Correct,0.630311916960577,5,S04,F,R,22,4
ChD_BB_v2,1,0,25,0,Wrong,1.14053110056016,7,S04,F,R,22,3
ChD_BB_v2,1,0,26,1,Wrong,1.00045875160845,5,S04,F,R,22,2
ChD_BB_v2,1,0,27,0,Wrong,1.29057960398539,5,S04,F,R,22,3
ChD_BB_v2,1,0,28,1,Wrong,2.10091695708418,7,S04,F,R,22,2
ChD_BB_v2,1,0,29,1,Correct,0.890420337988012,6,S04,F,R,22,1
ChD_BB_v2,1,0,30,1,Timeout,NaN,5,S04,F,R,22,0
ChD_BB_v2,1,0,31,0,Correct,0.790371732162821,5,S04,F,R,22,4
ChD_BB_v2,1,0,32,1,Correct,0.540274281579268,6,S04,F,R,22,1
ChD_BB_v2,1,0,33,1,Wrong,1.02046396717741,5,S04,F,R,22,2
ChD_BB_v2,1,0,34,1,Correct,0.68032512654921,6,S04,F,R,22,1
ChD_BB_v2,1,0,35,1,Correct,0.900423799105101,7,S04,F,R,22,1
ChD_BB_v2,1,0,36,1,Wrong,0.950532923278524,7,S04,F,R,22,2
ChD_BB_v2,1,0,37,0,Correct,0.730347210797058,7,S04,F,R,22,4
ChD_BB_v2,1,0,38,0,Correct,0.610298168065533,6,S04,F,R,22,4
ChD_BB_v2,1,0,39,0,Wrong,1.00045602094417,6,S04,F,R,22,3
ChD_BB_v2,1,0,40,1,Wrong,1.17053397458441,6,S04,F,R,22,2
ChD_BB_v2,1,0,41,1,Wrong,0.830403325949155,7,S04,F,R,22,2
ChD_BB_v2,1,0,42,1,Wrong,0.620306749178271,5,S04,F,R,22,2
ChD_BB_v2,2,0,1,1,Correct,1.34059861623582,5,S04,F,R,22,1
ChD_BB_v2,2,0,2,1,Correct,0.800376558611993,5,S04,F,R,22,1
ChD_BB_v2,2,0,3,1,Wrong,1.08049053654141,7,S04,F,R,22,2
ChD_BB_v2,2,0,4,0,Correct,0.890427505981784,5,S04,F,R,22,4
ChD_BB_v2,2,0,5,1,Correct,1.18053231570585,6,S04,F,R,22,1
ChD_BB_v2,2,0,6,1,Correct,1.38062986868914,5,S04,F,R,22,1
ChD_BB_v2,2,0,7,0,Correct,0.840399277739339,6,S04,F,R,22,4
ChD_BB_v2,2,0,8,1,Correct,0.890415900658518,7,S04,F,R,22,1
ChD_BB_v2,2,0,9,1,Correct,0.970453829586077,6,S04,F,R,22,1
ChD_BB_v2,2,0,10,0,Correct,0.580286419382183,5,S04,F,R,22,4
ChD_BB_v2,2,0,11,0,Correct,0.650396321795074,6,S04,F,R,22,4
ChD_BB_v2,2,0,12,1,Wrong,0.890416583324445,6,S04,F,R,22,2
ChD_BB_v2,2,0,13,0,Wrong,1.34059793356978,5,S04,F,R,22,3
ChD_BB_v2,2,0,14,0,Correct,0.780366223047495,6,S04,F,R,22,4
ChD_BB_v2,2,0,15,0,Correct,0.85039591219545,7,S04,F,R,22,4
ChD_BB_v2,2,0,16,0,Wrong,0.930432475790926,5,S04,F,R,22,3
ChD_BB_v2,2,0,17,1,Correct,1.27056995108693,6,S04,F,R,22,1
ChD_BB_v2,2,0,18,1,Correct,0.860398349313477,7,S04,F,R,22,1
ChD_BB_v2,2,0,19,1,Correct,0.840390744413257,5,S04,F,R,22,1
ChD_BB_v2,2,0,20,0,Correct,1.27057029242007,6,S04,F,R,22,4
ChD_BB_v2,2,0,21,1,Wrong,1.50066423409987,5,S04,F,R,22,2
ChD_BB_v2,2,0,22,0,Correct,1.33059686178395,5,S04,F,R,22,4
ChD_BB_v2,2,0,23,1,Wrong,0.760362031477821,7,S04,F,R,22,2
ChD_BB_v2,2,0,24,1,Wrong,0.750369493017956,7,S04,F,R,22,2
ChD_BB_v2,2,0,25,0,Correct,0.590301144489745,6,S04,F,R,22,4
ChD_BB_v2,2,0,26,1,Correct,0.86041336796729,5,S04,F,R,22,1
ChD_BB_v2,2,0,27,0,Correct,0.780368271045732,7,S04,F,R,22,4
ChD_BB_v2,2,0,28,1,Correct,1.32058964600352,7,S04,F,R,22,1
ChD_BB_v2,2,0,29,0,Correct,0.750359594359793,5,S04,F,R,22,4
ChD_BB_v2,2,0,30,1,Wrong,1.46064936563245,6,S04,F,R,22,2
ChD_BB_v2,2,0,31,0,Wrong,0.830386259297106,6,S04,F,R,22,3
ChD_BB_v2,2,0,32,1,Wrong,1.43064444361008,7,S04,F,R,22,2
ChD_BB_v2,2,0,33,1,Wrong,1.24055581307244,7,S04,F,R,22,2
ChD_BB_v2,2,0,34,0,Correct,1.1505236390198,5,S04,F,R,22,4
ChD_BB_v2,2,0,35,0,Wrong,1.43064376094404,7,S04,F,R,22,3
ChD_BB_v2,2,0,36,0,Correct,1.02046703917471,6,S04,F,R,22,4
ChD_BB_v2,2,0,37,0,Correct,0.700340582109357,7,S04,F,R,22,4
ChD_BB_v2,2,0,38,1,Correct,0.620314258505177,7,S04,F,R,22,1
ChD_BB_v2,2,0,39,0,Correct,1.02046533250961,5,S04,F,R,22,4
ChD_BB_v2,2,0,40,0,Correct,0.650321911191941,6,S04,F,R,22,4
ChD_BB_v2,2,0,41,1,Correct,0.610295778734276,6,S04,F,R,22,1
ChD_BB_v2,2,0,42,0,Correct,1.71075193621165,7,S04,F,R,22,4
ChD_BB_v2,3,4,1,1,Wrong,1.23055269328837,7,S04,F,R,22,2
ChD_BB_v2,3,4,2,1,Wrong,0.640311282081079,5,S04,F,R,22,2
ChD_BB_v2,3,4,3,0,Correct,0.820382798180017,5,S04,F,R,22,4
ChD_BB_v2,3,4,4,0,Correct,0.490247077335771,5,S04,F,R,22,4
ChD_BB_v2,3,4,5,0,Wrong,0.950442128689383,6,S04,F,R,22,3
ChD_BB_v2,3,4,6,1,Correct,1.59072200813053,7,S04,F,R,22,1
ChD_BB_v2,3,4,7,0,Wrong,0.970454853585366,7,S04,F,R,22,3
ChD_BB_v2,3,4,8,0,Correct,0.690332683662659,5,S04,F,R,22,4
ChD_BB_v2,3,4,9,0,Wrong,1.01047552471413,7,S04,F,R,22,3
ChD_BB_v2,3,4,10,1,Correct,0.990457679822616,7,S04,F,R,22,1
ChD_BB_v2,3,4,11,0,Wrong,1.30059296376076,5,S04,F,R,22,3
ChD_BB_v2,3,4,12,1,Correct,0.830385235297931,5,S04,F,R,22,1
ChD_BB_v2,3,4,13,1,Correct,0.770362761930405,7,S04,F,R,22,1
ChD_BB_v2,3,4,14,0,Correct,0.790374121493965,6,S04,F,R,22,4
ChD_BB_v2,3,4,15,0,Correct,1.28057682553445,7,S04,F,R,22,4
ChD_BB_v2,3,4,16,1,Correct,0.740349647914973,7,S04,F,R,22,1
ChD_BB_v2,3,4,17,1,Wrong,0.910423164225717,6,S04,F,R,22,2
ChD_BB_v2,3,4,18,1,Correct,0.760362714143976,7,S04,F,R,22,1
ChD_BB_v2,3,4,19,0,Correct,1.06048327297432,7,S04,F,R,22,4
ChD_BB_v2,3,4,20,1,Wrong,0.680360283852597,5,S04,F,R,22,2
ChD_BB_v2,3,4,21,0,Correct,0.920424236011322,6,S04,F,R,22,4
ChD_BB_v2,3,4,22,0,Wrong,1.07048741675746,7,S04,F,R,22,3
ChD_BB_v2,3,4,23,1,Wrong,0.960448661803885,5,S04,F,R,22,2
ChD_BB_v2,3,4,24,0,Correct,0.74035408524458,6,S04,F,R,22,4
ChD_BB_v2,3,4,25,0,Wrong,1.24055581307232,6,S04,F,R,22,3
ChD_BB_v2,3,4,26,0,Wrong,0.810386846390061,5,S04,F,R,22,3
ChD_BB_v2,3,4,27,0,Wrong,0.920425601343404,7,S04,F,R,22,3
ChD_BB_v2,3,4,28,0,Correct,0.830411859275123,5,S04,F,R,22,4
ChD_BB_v2,3,4,29,0,Correct,1.13051227945624,6,S04,F,R,22,4
ChD_BB_v2,3,4,30,1,Wrong,0.750353791697876,6,S04,F,R,22,2
ChD_BB_v2,3,4,31,1,Correct,0.560275059818623,5,S04,F,R,22,1
ChD_BB_v2,3,4,32,1,Correct,1.15052398035293,6,S04,F,R,22,1
ChD_BB_v2,3,4,33,1,Wrong,0.600293000283455,5,S04,F,R,22,2
ChD_BB_v2,3,4,34,0,Wrong,1.01047177005079,7,S04,F,R,22,3
ChD_BB_v2,3,4,35,1,Correct,0.740356474575838,5,S04,F,R,22,1
ChD_BB_v2,3,4,36,1,Correct,0.790375145493367,6,S04,F,R,22,1
ChD_BB_v2,3,4,37,1,Wrong,0.940439691571582,6,S04,F,R,22,2
ChD_BB_v2,3,4,38,1,Correct,0.770372660588569,7,S04,F,R,22,1
ChD_BB_v2,3,4,39,0,Correct,0.900426188436131,5,S04,F,R,22,4
ChD_BB_v2,3,4,40,0,Wrong,1.00045704494323,6,S04,F,R,22,3
ChD_BB_v2,3,4,41,1,Correct,1.43063591028389,6,S04,F,R,22,1
ChD_BB_v2,3,4,42,1,Correct,0.870409319757587,6,S04,F,R,22,1
ChD_BB_v2,4,7,1,1,Wrong,1.25055995685545,7,S04,F,R,22,2
ChD_BB_v2,4,7,2,1,Wrong,0.65031371919888,5,S04,F,R,22,2
ChD_BB_v2,4,7,3,0,Correct,0.910420774894233,7,S04,F,R,22,4
ChD_BB_v2,4,7,4,0,Correct,0.960443200475102,5,S04,F,R,22,4
ChD_BB_v2,4,7,5,1,Correct,0.630310551628268,7,S04,F,R,22,1
ChD_BB_v2,4,7,6,0,Wrong,1.2405568370715,6,S04,F,R,22,3
ChD_BB_v2,4,7,7,0,Wrong,0.96044046981071,6,S04,F,R,22,3
ChD_BB_v2,4,7,8,1,Correct,0.970448368257407,7,S04,F,R,22,1
ChD_BB_v2,4,7,9,0,Wrong,1.24056298106632,6,S04,F,R,22,3
ChD_BB_v2,4,7,10,0,Correct,0.850395570862543,5,S04,F,R,22,4
ChD_BB_v2,4,7,11,1,Wrong,0.830388648628364,7,S04,F,R,22,2
ChD_BB_v2,4,7,12,0,Correct,0.700465836935928,7,S04,F,R,22,4
ChD_BB_v2,4,7,13,1,Correct,0.660320593646629,6,S04,F,R,22,1
ChD_BB_v2,4,7,14,0,Correct,0.880412780874449,7,S04,F,R,22,4
ChD_BB_v2,4,7,15,0,Correct,0.870403858428804,7,S04,F,R,22,4
ChD_BB_v2,4,7,16,0,Wrong,0.800375193279797,6,S04,F,R,22,3
ChD_BB_v2,4,7,17,0,Correct,1.29057721465402,7,S04,F,R,22,4
ChD_BB_v2,4,7,18,1,Correct,0.800377582611054,7,S04,F,R,22,1
ChD_BB_v2,4,7,19,1,Wrong,0.990458021155978,7,S04,F,R,22,2
ChD_BB_v2,4,7,20,1,Correct,1.13050954879185,5,S04,F,R,22,1
ChD_BB_v2,4,7,21,1,Correct,1.2205482081721,6,S04,F,R,22,1
ChD_BB_v2,4,7,22,1,Correct,0.800373827947715,6,S04,F,R,22,1
ChD_BB_v2,4,7,23,1,Correct,0.460233280654184,5,S04,F,R,22,1
ChD_BB_v2,4,7,24,1,Correct,0.950445542019702,6,S04,F,R,22,1
ChD_BB_v2,4,7,25,1,Correct,0.58028300605175,5,S04,F,R,22,1
ChD_BB_v2,4,7,26,1,Wrong,0.660318204314917,6,S04,F,R,22,2
ChD_BB_v2,4,7,27,0,Correct,0.570282275599052,5,S04,F,R,22,4
ChD_BB_v2,4,7,28,0,Wrong,0.870411367755482,7,S04,F,R,22,3
ChD_BB_v2,4,7,29,0,Correct,0.790370366830625,5,S04,F,R,22,4
ChD_BB_v2,4,7,30,0,Wrong,1.01046255405867,7,S04,F,R,22,3
ChD_BB_v2,4,7,31,1,Wrong,0.810378995730021,5,S04,F,R,22,2
ChD_BB_v2,4,7,32,0,Correct,1.45064385651724,6,S04,F,R,22,4
ChD_BB_v2,4,7,33,0,Correct,0.580283347384884,5,S04,F,R,22,4
ChD_BB_v2,4,7,34,1,Wrong,0.820382456846883,6,S04,F,R,22,2
ChD_BB_v2,4,7,35,1,Wrong,1.09049536299058,7,S04,F,R,22,2
ChD_BB_v2,4,7,36,0,Correct,1.31058584355341,6,S04,F,R,22,4
ChD_BB_v2,4,7,37,1,Correct,1.10050155477206,5,S04,F,R,22,1
ChD_BB_v2,4,7,38,0,Correct,1.00046114093971,6,S04,F,R,22,4
ChD_BB_v2,4,7,39,1,Correct,1.13051091412416,6,S04,F,R,22,1
ChD_BB_v2,4,7,40,0,Correct,1.13051125545706,5,S04,F,R,22,4
ChD_BB_v2,4,7,41,1,Correct,1.06048327297432,5,S04,F,R,22,1
ChD_BB_v2,4,7,42,0,Correct,1.18062003829747,5,S04,F,R,22,4
ChD_BB_v2,5,4,1,1,Correct,1.13058707988119,6,S04,F,R,22,1
ChD_BB_v2,5,4,2,1,Correct,0.730347893463099,5,S04,F,R,22,1
ChD_BB_v2,5,4,3,1,Wrong,0.81037831306398,5,S04,F,R,22,2
ChD_BB_v2,5,4,4,0,Correct,0.72034648034436,5,S04,F,R,22,4
ChD_BB_v2,5,4,5,1,Wrong,0.690328587666186,6,S04,F,R,22,2
ChD_BB_v2,5,4,6,1,Correct,0.730347552130193,7,S04,F,R,22,1
ChD_BB_v2,5,4,7,0,Correct,0.980449098709878,5,S04,F,R,22,4
ChD_BB_v2,5,4,8,0,Correct,0.580288467380533,5,S04,F,R,22,4
ChD_BB_v2,5,4,9,0,Correct,0.660328785639576,7,S04,F,R,22,4
ChD_BB_v2,5,4,10,0,Correct,0.630303042301589,7,S04,F,R,22,4
ChD_BB_v2,5,4,11,0,Correct,1.4406393714012,6,S04,F,R,22,4
ChD_BB_v2,5,4,12,0,Correct,0.930441350450142,7,S04,F,R,22,4
ChD_BB_v2,5,4,13,1,Correct,0.940434230242799,6,S04,F,R,22,1
ChD_BB_v2,5,4,14,0,Correct,1.13051227945624,6,S04,F,R,22,4
ChD_BB_v2,5,4,15,1,Correct,0.660317180315969,5,S04,F,R,22,1
ChD_BB_v2,5,4,16,1,Correct,0.77036173793123,5,S04,F,R,22,1
ChD_BB_v2,5,4,17,1,Wrong,1.10049882410767,7,S04,F,R,22,2
ChD_BB_v2,5,4,18,1,Correct,0.550270574702586,5,S04,F,R,22,1
ChD_BB_v2,5,4,19,0,Wrong,1.20054333393628,5,S04,F,R,22,3
ChD_BB_v2,5,4,20,0,Wrong,0.870408978424453,7,S04,F,R,22,3
ChD_BB_v2,5,4,21,1,Wrong,0.820390990172964,5,S04,F,R,22,2
ChD_BB_v2,5,4,22,0,Correct,0.960442176475926,6,S04,F,R,22,4
ChD_BB_v2,5,4,23,1,Correct,0.540270185582795,5,S04,F,R,22,1
ChD_BB_v2,5,4,24,0,Correct,0.78037168437605,6,S04,F,R,22,4
ChD_BB_v2,5,4,25,1,Correct,1.17056708388933,7,S04,F,R,22,1
ChD_BB_v2,5,4,26,1,Correct,0.970450416255758,6,S04,F,R,22,1
ChD_BB_v2,5,4,27,0,Wrong,1.3906196764845,6,S04,F,R,22,3
ChD_BB_v2,5,4,28,1,Wrong,1.02047727916601,7,S04,F,R,22,2
ChD_BB_v2,5,4,29,1,Wrong,1.1705295372548,6,S04,F,R,22,2
ChD_BB_v2,5,4,30,0,Correct,0.950435643361539,5,S04,F,R,22,4
ChD_BB_v2,5,4,31,1,Wrong,0.700338192778099,5,S04,F,R,22,2
ChD_BB_v2,5,4,32,0,Correct,0.780365881714588,7,S04,F,R,22,4
ChD_BB_v2,5,4,33,1,Wrong,0.98044807471093,7,S04,F,R,22,2
ChD_BB_v2,5,4,34,0,Correct,0.630304407633671,6,S04,F,R,22,4
ChD_BB_v2,5,4,35,1,Wrong,0.950440080691146,5,S04,F,R,22,2
ChD_BB_v2,5,4,36,0,Correct,0.760370564803789,7,S04,F,R,22,4
ChD_BB_v2,5,4,37,0,Correct,0.880407319545666,7,S04,F,R,22,4
ChD_BB_v2,5,4,38,0,Correct,0.870403858428576,6,S04,F,R,22,4
ChD_BB_v2,5,4,39,1,Wrong,0.920424236011322,7,S04,F,R,22,2
ChD_BB_v2,5,4,40,0,Correct,0.670320300099925,7,S04,F,R,22,4
ChD_BB_v2,5,4,41,1,Correct,0.800373486614581,6,S04,F,R,22,1
ChD_BB_v2,5,4,42,0,Correct,1.05051394516133,6,S04,F,R,22,4
ChD_BB_v2,6,7,1,0,Correct,1.3506051493501,6,S04,F,R,22,4
ChD_BB_v2,6,7,2,1,Correct,0.550272622700709,6,S04,F,R,22,1
ChD_BB_v2,6,7,3,0,Correct,0.830387965962323,5,S04,F,R,22,4
ChD_BB_v2,6,7,4,0,Wrong,1.05048049452328,6,S04,F,R,22,3
ChD_BB_v2,6,7,5,1,Correct,0.800374510613756,7,S04,F,R,22,1
ChD_BB_v2,6,7,6,1,Correct,0.63030611429866,5,S04,F,R,22,1
ChD_BB_v2,6,7,7,1,Correct,0.870404541094845,6,S04,F,R,22,1
ChD_BB_v2,6,7,8,0,Wrong,0.87040351709567,5,S04,F,R,22,3
ChD_BB_v2,6,7,9,0,Wrong,1.01047108738453,7,S04,F,R,22,3
ChD_BB_v2,6,7,10,0,Correct,0.590287491168015,7,S04,F,R,22,4
ChD_BB_v2,6,7,11,0,Correct,1.14051642323914,6,S04,F,R,22,4
ChD_BB_v2,6,7,12,0,Correct,0.720353307004998,5,S04,F,R,22,4
ChD_BB_v2,6,7,13,0,Correct,0.760360666145625,5,S04,F,R,22,4
ChD_BB_v2,6,7,14,1,Wrong,0.780366223047495,7,S04,F,R,22,2
ChD_BB_v2,6,7,15,0,Correct,0.980454901371795,7,S04,F,R,22,4
ChD_BB_v2,6,7,16,1,Wrong,0.980449098710105,7,S04,F,R,22,2
ChD_BB_v2,6,7,17,0,Correct,0.660320252313268,7,S04,F,R,22,4
ChD_BB_v2,6,7,18,1,Correct,0.630306796964928,6,S04,F,R,22,1
ChD_BB_v2,6,7,19,0,Correct,0.830391037959621,6,S04,F,R,22,4
ChD_BB_v2,6,7,20,1,Correct,0.550276377364276,6,S04,F,R,22,1
ChD_BB_v2,6,7,21,0,Correct,0.82038245684711,5,S04,F,R,22,4
ChD_BB_v2,6,7,22,0,Correct,0.840393475077535,5,S04,F,R,22,4
ChD_BB_v2,6,7,23,1,Correct,0.620311186507879,5,S04,F,R,22,1
ChD_BB_v2,6,7,24,1,Wrong,0.890419655321743,5,S04,F,R,22,2
ChD_BB_v2,6,7,25,1,Correct,0.620300946516582,6,S04,F,R,22,1
ChD_BB_v2,6,7,26,1,Correct,0.900415607112154,5,S04,F,R,22,1
ChD_BB_v2,6,7,27,0,Correct,1.02047045250514,5,S04,F,R,22,4
ChD_BB_v2,6,7,28,0,Correct,0.500250197119612,5,S04,F,R,22,4
ChD_BB_v2,6,7,29,1,Correct,0.560276766483839,7,S04,F,R,22,1
ChD_BB_v2,6,7,30,1,Correct,1.07048741675723,7,S04,F,R,22,1
ChD_BB_v2,6,7,31,0,Correct,0.810378313063752,7,S04,F,R,22,4
ChD_BB_v2,6,7,32,1,Wrong,0.880410732876098,7,S04,F,R,22,2
ChD_BB_v2,6,7,33,0,Correct,0.700334779447667,6,S04,F,R,22,4
ChD_BB_v2,6,7,34,1,Correct,1.0204738658358,6,S04,F,R,22,1
ChD_BB_v2,6,7,35,1,Wrong,1.09049672832266,7,S04,F,R,22,2
ChD_BB_v2,6,7,36,1,Correct,0.68033263587623,5,S04,F,R,22,1
ChD_BB_v2,6,7,37,1,Correct,0.720341360348712,7,S04,F,R,22,1
ChD_BB_v2,6,7,38,0,Correct,0.870404199761938,6,S04,F,R,22,4
ChD_BB_v2,6,7,39,1,Correct,0.60037673105644,6,S04,F,R,22,1
ChD_BB_v2,6,7,40,0,Wrong,1.06048122497597,7,S04,F,R,22,3
ChD_BB_v2,6,7,41,1,Correct,1.40062894026328,5,S04,F,R,22,1
ChD_BB_v2,6,7,42,0,Wrong,0.930430086459669,6,S04,F,R,22,3
ChD_BB_v2,7,7,1,0,Correct,1.37061992224432,6,S04,F,R,22,4
ChD_BB_v2,7,7,2,0,Wrong,1.08049121920745,5,S04,F,R,22,3
ChD_BB_v2,7,7,3,1,Correct,0.670321665432234,7,S04,F,R,22,1
ChD_BB_v2,7,7,4,0,Correct,0.740348623916025,5,S04,F,R,22,4
ChD_BB_v2,7,7,5,0,Wrong,0.760358959480409,7,S04,F,R,22,3
ChD_BB_v2,7,7,6,1,Wrong,0.750353791698103,7,S04,F,R,22,2
ChD_BB_v2,7,7,7,1,Correct,0.960444907140318,6,S04,F,R,22,1
ChD_BB_v2,7,7,8,1,Correct,0.850395912195677,5,S04,F,R,22,1
ChD_BB_v2,7,7,9,0,Correct,0.720349211008524,5,S04,F,R,22,4
ChD_BB_v2,7,7,10,0,Correct,0.850405469520706,7,S04,F,R,22,4
ChD_BB_v2,7,7,11,0,Correct,0.710338923230797,7,S04,F,R,22,4
ChD_BB_v2,7,7,12,1,Correct,1.05047776385888,6,S04,F,R,22,1
ChD_BB_v2,7,7,13,0,Correct,0.940431158245274,5,S04,F,R,22,4
ChD_BB_v2,7,7,14,0,Correct,1.69074501397759,6,S04,F,R,22,4
ChD_BB_v2,7,7,15,0,Wrong,1.11051150121688,7,S04,F,R,22,3
ChD_BB_v2,7,7,16,0,Correct,0.860401079977528,5,S04,F,R,22,4
ChD_BB_v2,7,7,17,0,Correct,0.840391085746278,5,S04,F,R,22,4
ChD_BB_v2,7,7,18,1,Wrong,0.730354378791058,6,S04,F,R,22,2
ChD_BB_v2,7,7,19,0,Correct,1.06048156630888,5,S04,F,R,22,4
ChD_BB_v2,7,7,20,0,Correct,0.680324102550148,5,S04,F,R,22,4
ChD_BB_v2,7,7,21,1,Correct,1.21054577105419,5,S04,F,R,22,1
ChD_BB_v2,7,7,22,0,Wrong,0.860398690646498,6,S04,F,R,22,3
ChD_BB_v2,7,7,23,1,Correct,0.850393864197099,6,S04,F,R,22,1
ChD_BB_v2,7,7,24,1,Correct,1.23055883728297,7,S04,F,R,22,1
ChD_BB_v2,7,7,25,1,Correct,0.710341312562055,7,S04,F,R,22,1
ChD_BB_v2,7,7,26,0,Correct,0.830394451290054,7,S04,F,R,22,4
ChD_BB_v2,7,7,27,0,Correct,0.880411756875274,7,S04,F,R,22,4
ChD_BB_v2,7,7,28,1,Correct,1.50066491676603,5,S04,F,R,22,1
ChD_BB_v2,7,7,29,0,Wrong,1.2405701490601,6,S04,F,R,22,3
ChD_BB_v2,7,7,30,0,Correct,0.820381774180842,6,S04,F,R,22,4
ChD_BB_v2,7,7,31,1,Wrong,1.01046562605597,6,S04,F,R,22,2
ChD_BB_v2,7,7,32,1,Correct,1.40062347893472,7,S04,F,R,22,1
ChD_BB_v2,7,7,33,1,Correct,0.820384504845233,7,S04,F,R,22,1
ChD_BB_v2,7,7,34,1,Wrong,1.52067252166602,5,S04,F,R,22,2
ChD_BB_v2,7,7,35,1,Correct,0.740349647914973,6,S04,F,R,22,1
ChD_BB_v2,7,7,36,1,Wrong,1.04047737473909,7,S04,F,R,22,2
ChD_BB_v2,7,7,37,1,Correct,1.17052851325563,6,S04,F,R,22,1
ChD_BB_v2,7,7,38,1,Correct,0.710345408558755,7,S04,F,R,22,1
ChD_BB_v2,7,7,39,0,Correct,1.11050399188998,6,S04,F,R,22,4
ChD_BB_v2,7,7,40,1,Correct,0.720349211008524,5,S04,F,R,22,1
ChD_BB_v2,7,7,41,0,Correct,0.710336875232674,6,S04,F,R,22,4
ChD_BB_v2,7,7,42,1,Correct,0.99045153582802,5,S04,F,R,22,1
ChD_BB_v2,8,0,1,0,Correct,0.970448368257407,7,S04,F,R,22,4
ChD_BB_v2,8,0,2,0,Correct,0.600293000283227,6,S04,F,R,22,4
ChD_BB_v2,8,0,3,1,Wrong,0.930431793124885,6,S04,F,R,22,2
ChD_BB_v2,8,0,4,0,Correct,0.560274035819448,7,S04,F,R,22,4
ChD_BB_v2,8,0,5,0,Correct,0.630308503630145,5,S04,F,R,22,4
ChD_BB_v2,8,0,6,1,Correct,0.66031581498366,6,S04,F,R,22,1
ChD_BB_v2,8,0,7,0,Correct,0.700332390116409,5,S04,F,R,22,4
ChD_BB_v2,8,0,8,0,Correct,0.670325078762667,5,S04,F,R,22,4
ChD_BB_v2,8,0,9,1,Wrong,0.850400349525057,5,S04,F,R,22,2
ChD_BB_v2,8,0,10,1,Wrong,0.630306455631794,6,S04,F,R,22,2
ChD_BB_v2,8,0,11,0,Correct,0.720349552341886,7,S04,F,R,22,4
ChD_BB_v2,8,0,12,1,Correct,0.690332342329525,5,S04,F,R,22,1
ChD_BB_v2,8,0,13,0,Correct,0.740351695913323,7,S04,F,R,22,4
ChD_BB_v2,8,0,14,1,Correct,0.590287149834881,6,S04,F,R,22,1
ChD_BB_v2,8,0,15,1,Wrong,0.750353791698103,6,S04,F,R,22,2
ChD_BB_v2,8,0,16,0,Correct,0.81038275039336,6,S04,F,R,22,4
ChD_BB_v2,8,0,17,1,Wrong,0.920424918677363,5,S04,F,R,22,2
ChD_BB_v2,8,0,18,1,Wrong,0.770370612590446,5,S04,F,R,22,2
ChD_BB_v2,8,0,19,1,Correct,0.750356522362267,7,S04,F,R,22,1
ChD_BB_v2,8,0,20,1,Correct,0.82048609631428,5,S04,F,R,22,1
ChD_BB_v2,8,0,21,1,Correct,0.650314060532014,7,S04,F,R,22,1
ChD_BB_v2,8,0,22,1,Wrong,0.800379971942539,5,S04,F,R,22,2
ChD_BB_v2,8,0,23,0,Correct,1.08049190187327,7,S04,F,R,22,4
ChD_BB_v2,8,0,24,1,Wrong,0.950437350026755,7,S04,F,R,22,2
ChD_BB_v2,8,0,25,0,Correct,0.670320982766193,6,S04,F,R,22,4
ChD_BB_v2,8,0,26,0,Correct,0.740348965248932,5,S04,F,R,22,4
ChD_BB_v2,8,0,27,0,Correct,0.960443883141597,5,S04,F,R,22,4
ChD_BB_v2,8,0,28,1,Wrong,0.950442470022176,6,S04,F,R,22,2
ChD_BB_v2,8,0,29,1,Correct,0.650312353867025,6,S04,F,R,22,1
ChD_BB_v2,8,0,30,0,Correct,0.960442859142422,7,S04,F,R,22,4
ChD_BB_v2,8,0,31,0,Wrong,0.860398690646498,5,S04,F,R,22,3
ChD_BB_v2,8,0,32,0,Correct,0.800375875945611,7,S04,F,R,22,4
ChD_BB_v2,8,0,33,0,Correct,1.09049672832266,7,S04,F,R,22,4
ChD_BB_v2,8,0,34,1,Wrong,1.06048634497162,6,S04,F,R,22,2
ChD_BB_v2,8,0,35,1,Correct,0.65031713252954,6,S04,F,R,22,1
ChD_BB_v2,8,0,36,1,Wrong,1.13052115411523,6,S04,F,R,22,2
ChD_BB_v2,8,0,37,0,Correct,0.7603575941481,6,S04,F,R,22,4
ChD_BB_v2,8,0,38,1,Correct,0.980448074710703,5,S04,F,R,22,1
ChD_BB_v2,8,0,39,0,Correct,0.82038689417649,7,S04,F,R,22,4
ChD_BB_v2,8,0,40,1,Correct,0.680325126549324,7,S04,F,R,22,1
ChD_BB_v2,8,0,41,0,Correct,0.890411121995435,5,S04,F,R,22,4
ChD_BB_v2,8,0,42,0,Correct,0.810377971730845,7,S04,F,R,22,4
ChD_BB_v2,9,4,1,1,Timeout,NaN,7,S04,F,R,22,0
ChD_BB_v2,9,4,2,0,Correct,0.970447344258005,5,S04,F,R,22,4
ChD_BB_v2,9,4,3,1,Wrong,0.550273646699884,6,S04,F,R,22,2
ChD_BB_v2,9,4,4,1,Correct,0.660320934979309,5,S04,F,R,22,1
ChD_BB_v2,9,4,5,0,Correct,0.820385870177315,6,S04,F,R,22,4
ChD_BB_v2,9,4,6,1,Correct,0.670330198758315,7,S04,F,R,22,1
ChD_BB_v2,9,4,7,0,Wrong,1.16052402813913,5,S04,F,R,22,3
ChD_BB_v2,9,4,8,0,Correct,0.79037480416046,5,S04,F,R,22,4
ChD_BB_v2,9,4,9,0,Correct,0.690329611665361,7,S04,F,R,22,4
ChD_BB_v2,9,4,10,0,Correct,0.73034652813079,5,S04,F,R,22,4
ChD_BB_v2,9,4,11,1,Wrong,0.82038484617814,6,S04,F,R,22,2
ChD_BB_v2,9,4,12,0,Correct,0.800390553266516,5,S04,F,R,22,4
ChD_BB_v2,9,4,13,1,Correct,0.780478792862696,6,S04,F,R,22,1
ChD_BB_v2,9,4,14,0,Correct,0.870525358591808,6,S04,F,R,22,4
ChD_BB_v2,9,4,15,0,Correct,0.82038689417649,5,S04,F,R,22,4
ChD_BB_v2,9,4,16,1,Correct,0.700332731449316,6,S04,F,R,22,1
ChD_BB_v2,9,4,17,1,Correct,0.920427649341982,6,S04,F,R,22,1
ChD_BB_v2,9,4,18,0,Wrong,1.49066043164999,5,S04,F,R,22,3
ChD_BB_v2,9,4,19,1,Correct,0.780366564380629,7,S04,F,R,22,1
ChD_BB_v2,9,4,20,1,Correct,1.16053699879505,7,S04,F,R,22,1
ChD_BB_v2,9,4,21,0,Correct,0.650312012533664,5,S04,F,R,22,4
ChD_BB_v2,9,4,22,1,Wrong,0.750361642358371,7,S04,F,R,22,2
ChD_BB_v2,9,4,23,1,Correct,1.38061450870219,7,S04,F,R,22,1
ChD_BB_v2,9,4,24,1,Correct,0.690328587666186,5,S04,F,R,22,1
ChD_BB_v2,9,4,25,1,Wrong,0.800374510613983,7,S04,F,R,22,2
ChD_BB_v2,9,4,26,1,Correct,0.820380750181894,7,S04,F,R,22,1
ChD_BB_v2,9,4,27,1,Wrong,1.75076817001093,7,S04,F,R,22,2
ChD_BB_v2,9,4,28,0,Correct,0.8303985472863,5,S04,F,R,22,4
ChD_BB_v2,9,4,29,0,Correct,0.99045358382637,7,S04,F,R,22,4
ChD_BB_v2,9,4,30,1,Correct,0.670318934767843,7,S04,F,R,22,1
ChD_BB_v2,9,4,31,0,Correct,0.710451151712409,6,S04,F,R,22,4
ChD_BB_v2,9,4,32,0,Correct,0.850402056190046,6,S04,F,R,22,4
ChD_BB_v2,9,4,33,0,Correct,1.0204735245029,6,S04,F,R,22,4
ChD_BB_v2,9,4,34,0,Correct,0.720342725681021,7,S04,F,R,22,4
ChD_BB_v2,9,4,35,0,Correct,0.680326833214313,7,S04,F,R,22,4
ChD_BB_v2,9,4,36,1,Correct,0.560274377152127,5,S04,F,R,22,1
ChD_BB_v2,9,4,37,1,Wrong,1.26056683130298,5,S04,F,R,22,2
ChD_BB_v2,9,4,38,0,Correct,0.710338581897436,6,S04,F,R,22,4
ChD_BB_v2,9,4,39,0,Wrong,0.650311671200757,5,S04,F,R,22,3
ChD_BB_v2,9,4,40,1,Correct,0.810379337062927,6,S04,F,R,22,1
ChD_BB_v2,9,4,41,0,Wrong,1.13051125545684,6,S04,F,R,22,3
ChD_BB_v2,9,4,42,1,Wrong,1.14052734589671,6,S04,F,R,22,2
ChD_BB_v2,1,0,1,0,Wrong,1.70924487573955,7,S05,F,R,30,3
ChD_BB_v2,1,0,2,1,Wrong,1.49935010188983,6,S05,F,R,30,2
ChD_BB_v2,1,0,3,1,Wrong,1.58929988497332,5,S05,F,R,30,2
ChD_BB_v2,1,0,4,0,Correct,2.39892951131624,7,S05,F,R,30,4
ChD_BB_v2,1,0,5,0,Timeout,NaN,5,S05,F,R,30,0
ChD_BB_v2,1,0,6,0,Correct,1.13951069225925,7,S05,F,R,30,4
ChD_BB_v2,1,0,7,1,Correct,1.18948734507923,5,S05,F,R,30,1
ChD_BB_v2,1,0,8,1,Correct,0.789685727842716,5,S05,F,R,30,1
ChD_BB_v2,1,0,9,0,Correct,1.4493655984098,5,S05,F,R,30,4
ChD_BB_v2,1,0,10,1,Correct,1.92914248948086,7,S05,F,R,30,1
ChD_BB_v2,1,0,11,0,Correct,1.29944212527735,6,S05,F,R,30,4
ChD_BB_v2,1,0,12,1,Wrong,2.30896505091276,7,S05,F,R,30,2
ChD_BB_v2,1,0,13,0,Correct,2.03909112568483,6,S05,F,R,30,4
ChD_BB_v2,1,0,14,1,Wrong,1.13951990825091,7,S05,F,R,30,2
ChD_BB_v2,1,0,15,1,Wrong,0.979585744567739,6,S05,F,R,30,2
ChD_BB_v2,1,0,16,0,Correct,1.22947105666603,7,S05,F,R,30,4
ChD_BB_v2,1,0,17,1,Correct,0.82965612744114,5,S05,F,R,30,1
ChD_BB_v2,1,0,18,0,Correct,1.0495581785116,6,S05,F,R,30,4
ChD_BB_v2,1,0,19,0,Correct,1.41938028938363,7,S05,F,R,30,4
ChD_BB_v2,1,0,20,1,Wrong,1.4893493099966,6,S05,F,R,30,2
ChD_BB_v2,1,0,21,0,Wrong,1.68925626260991,5,S05,F,R,30,3
ChD_BB_v2,1,0,22,0,Correct,2.14903942055544,6,S05,F,R,30,4
ChD_BB_v2,1,0,23,1,Timeout,NaN,5,S05,F,R,30,0
ChD_BB_v2,1,0,24,0,Correct,1.18949895040261,7,S05,F,R,30,4
ChD_BB_v2,1,0,25,0,Correct,1.83918314907325,6,S05,F,R,30,4
ChD_BB_v2,1,0,26,1,Correct,0.729702480467804,5,S05,F,R,30,1
ChD_BB_v2,1,0,27,1,Wrong,1.16949600128542,6,S05,F,R,30,2
ChD_BB_v2,1,0,28,1,Wrong,1.52932790158842,6,S05,F,R,30,2
ChD_BB_v2,1,0,29,1,Wrong,1.63928438845243,7,S05,F,R,30,2
ChD_BB_v2,1,0,30,0,Correct,1.11952037246461,7,S05,F,R,30,4
ChD_BB_v2,1,0,31,0,Correct,0.979585403235287,7,S05,F,R,30,4
ChD_BB_v2,1,0,32,0,Correct,1.8391851970716,6,S05,F,R,30,4
ChD_BB_v2,1,0,33,0,Correct,0.869640521694655,5,S05,F,R,30,4
ChD_BB_v2,1,0,34,0,Correct,1.63927722045912,7,S05,F,R,30,4
ChD_BB_v2,1,0,35,1,Correct,0.869637108363768,5,S05,F,R,30,1
ChD_BB_v2,1,0,36,1,Correct,1.04955374118244,6,S05,F,R,30,1
ChD_BB_v2,1,0,37,0,Correct,0.979586085901101,7,S05,F,R,30,4
ChD_BB_v2,1,0,38,1,Wrong,1.48935033399668,5,S05,F,R,30,2
ChD_BB_v2,1,0,39,1,Wrong,0.759690520159056,5,S05,F,R,30,2
ChD_BB_v2,1,0,40,1,Wrong,1.54931992804895,5,S05,F,R,30,2
ChD_BB_v2,1,0,41,1,Wrong,2.10905741563454,6,S05,F,R,30,2
ChD_BB_v2,1,0,42,0,Correct,0.839649751339239,6,S05,F,R,30,4
ChD_BB_v2,2,7,1,0,Correct,0.839650434005962,7,S05,F,R,30,4
ChD_BB_v2,2,7,2,0,Correct,0.96959007267038,7,S05,F,R,30,4
ChD_BB_v2,2,7,3,0,Correct,0.889627769492672,5,S05,F,R,30,4
ChD_BB_v2,2,7,4,0,Correct,1.13951035092588,6,S05,F,R,30,4
ChD_BB_v2,2,7,5,0,Wrong,1.52932858425514,6,S05,F,R,30,3
ChD_BB_v2,2,7,6,1,Wrong,1.57931103973682,7,S05,F,R,30,2
ChD_BB_v2,2,7,7,1,Wrong,1.05954941307889,7,S05,F,R,30,2
ChD_BB_v2,2,7,8,0,Correct,1.10952538323307,6,S05,F,R,30,4
ChD_BB_v2,2,7,9,1,Correct,0.909618430619757,6,S05,F,R,30,1
ChD_BB_v2,2,7,10,1,Correct,0.779679474621153,6,S05,F,R,30,1
ChD_BB_v2,2,7,11,0,Correct,1.34941263410319,6,S05,F,R,30,4
ChD_BB_v2,2,7,12,0,Wrong,1.21947367810368,7,S05,F,R,30,3
ChD_BB_v2,2,7,13,1,Wrong,1.59930750352651,7,S05,F,R,30,2
ChD_BB_v2,2,7,14,1,Correct,1.24946444845909,5,S05,F,R,30,1
ChD_BB_v2,2,7,15,0,Correct,1.62928154856176,7,S05,F,R,30,4
ChD_BB_v2,2,7,16,1,Correct,1.37939794312846,7,S05,F,R,30,1
ChD_BB_v2,2,7,17,1,Wrong,1.92914180681413,7,S05,F,R,30,2
ChD_BB_v2,2,7,18,1,Correct,0.969590414004651,5,S05,F,R,30,1
ChD_BB_v2,2,7,19,1,Correct,0.999576747029096,5,S05,F,R,30,1
ChD_BB_v2,2,7,20,1,Wrong,1.18948700374587,7,S05,F,R,30,2
ChD_BB_v2,2,7,21,1,Correct,0.779678450621977,5,S05,F,R,30,1
ChD_BB_v2,2,7,22,0,Correct,1.24946001112903,6,S05,F,R,30,4
ChD_BB_v2,2,7,23,0,Correct,0.919614443850478,5,S05,F,R,30,4
ChD_BB_v2,2,7,24,1,Wrong,1.47936490209016,5,S05,F,R,30,2
ChD_BB_v2,2,7,25,1,Wrong,2.29897074434793,6,S05,F,R,30,2
ChD_BB_v2,2,7,26,0,Correct,0.95959440077484,7,S05,F,R,30,4
ChD_BB_v2,2,7,27,1,Correct,1.1495415214592,5,S05,F,R,30,1
ChD_BB_v2,2,7,28,1,Wrong,1.65926822292047,6,S05,F,R,30,2
ChD_BB_v2,2,7,29,1,Wrong,0.989582440464274,6,S05,F,R,30,2
ChD_BB_v2,2,7,30,0,Correct,1.52932892558851,5,S05,F,R,30,4
ChD_BB_v2,2,7,31,0,Wrong,1.23947014189427,5,S05,F,R,30,3
ChD_BB_v2,2,7,32,0,Correct,0.919613761183755,5,S05,F,R,30,4
ChD_BB_v2,2,7,33,1,Correct,0.809664783647331,7,S05,F,R,30,1
ChD_BB_v2,2,7,34,1,Wrong,1.60929157009958,5,S05,F,R,30,2
ChD_BB_v2,2,7,35,0,Correct,1.02956205605527,7,S05,F,R,30,4
ChD_BB_v2,2,7,36,1,Correct,1.46935967286778,6,S05,F,R,30,1
ChD_BB_v2,2,7,37,0,Correct,1.03958196259766,5,S05,F,R,30,4
ChD_BB_v2,2,7,38,0,Correct,1.04955476518162,6,S05,F,R,30,4
ChD_BB_v2,2,7,39,0,Correct,1.12951536169525,7,S05,F,R,30,4
ChD_BB_v2,2,7,40,0,Correct,1.29943666394902,6,S05,F,R,30,4
ChD_BB_v2,2,7,41,1,Correct,0.7496972375925,5,S05,F,R,30,1
ChD_BB_v2,2,7,42,0,Wrong,1.55931833061048,6,S05,F,R,30,3
ChD_BB_v2,3,0,1,1,Correct,1.26944896559204,5,S05,F,R,30,1
ChD_BB_v2,3,0,2,1,Correct,0.709713526004798,7,S05,F,R,30,1
ChD_BB_v2,3,0,3,1,Wrong,0.819660114210419,5,S05,F,R,30,2
ChD_BB_v2,3,0,4,0,Correct,1.40938427615381,6,S05,F,R,30,4
ChD_BB_v2,3,0,5,0,Correct,0.979585403235287,7,S05,F,R,30,4
ChD_BB_v2,3,0,6,0,Correct,1.5293289255876,5,S05,F,R,30,4
ChD_BB_v2,3,0,7,0,Correct,1.42937732661352,7,S05,F,R,30,4
ChD_BB_v2,3,0,8,0,Correct,1.07953939154107,5,S05,F,R,30,4
ChD_BB_v2,3,0,9,1,Correct,0.779678791955339,6,S05,F,R,30,1
ChD_BB_v2,3,0,10,0,Correct,0.749693824262522,5,S05,F,R,30,4
ChD_BB_v2,3,0,11,1,Correct,0.889645518810194,6,S05,F,R,30,1
ChD_BB_v2,3,0,12,1,Correct,0.709719669999849,7,S05,F,R,30,1
ChD_BB_v2,3,0,13,0,Wrong,1.88916014322569,6,S05,F,R,30,3
ChD_BB_v2,3,0,14,1,Wrong,1.09952971133571,6,S05,F,R,30,2
ChD_BB_v2,3,0,15,0,Correct,0.939604080979298,6,S05,F,R,30,4
ChD_BB_v2,3,0,16,1,Correct,1.5693501838096,7,S05,F,R,30,1
ChD_BB_v2,3,0,17,1,Correct,0.909622185284006,7,S05,F,R,30,1
ChD_BB_v2,3,0,18,0,Correct,0.689721499545176,5,S05,F,R,30,4
ChD_BB_v2,3,0,19,1,Wrong,0.899624465388297,6,S05,F,R,30,2
ChD_BB_v2,3,0,20,0,Correct,0.839650434005962,6,S05,F,R,30,4
ChD_BB_v2,3,0,21,1,Wrong,1.2194726541045,7,S05,F,R,30,2
ChD_BB_v2,3,0,22,0,Correct,1.44936525707644,5,S05,F,R,30,4
ChD_BB_v2,3,0,23,1,Correct,1.09953005266907,7,S05,F,R,30,1
ChD_BB_v2,3,0,24,0,Correct,0.809664783647331,6,S05,F,R,30,4
ChD_BB_v2,3,0,25,0,Correct,1.63927687912666,7,S05,F,R,30,4
ChD_BB_v2,3,0,26,0,Correct,0.859643143132307,6,S05,F,R,30,4
ChD_BB_v2,3,0,27,1,Correct,0.58976785257275,5,S05,F,R,30,1
ChD_BB_v2,3,0,28,0,Correct,0.839652823337674,6,S05,F,R,30,4
ChD_BB_v2,3,0,29,0,Correct,1.33941696220583,6,S05,F,R,30,4
ChD_BB_v2,3,0,30,1,Wrong,1.10952504190062,5,S05,F,R,30,2
ChD_BB_v2,3,0,31,1,Correct,0.969591096669556,5,S05,F,R,30,1
ChD_BB_v2,3,0,32,1,Wrong,1.17949235584769,6,S05,F,R,30,2
ChD_BB_v2,3,0,33,0,Correct,1.06954337831126,7,S05,F,R,30,4
ChD_BB_v2,3,0,34,1,Wrong,1.20947868887304,5,S05,F,R,30,2
ChD_BB_v2,3,0,35,1,Wrong,1.16949634261788,6,S05,F,R,30,2
ChD_BB_v2,3,0,36,1,Correct,0.649740177289186,7,S05,F,R,30,1
ChD_BB_v2,3,0,37,1,Correct,1.15950920404637,5,S05,F,R,30,1
ChD_BB_v2,3,0,38,0,Correct,0.899625489387472,5,S05,F,R,30,4
ChD_BB_v2,3,0,39,1,Wrong,0.959594742106383,7,S05,F,R,30,2
ChD_BB_v2,3,0,40,0,Correct,0.779680498620328,5,S05,F,R,30,4
ChD_BB_v2,3,0,41,0,Correct,1.12951536169525,7,S05,F,R,30,4
ChD_BB_v2,3,0,42,0,Correct,0.819661820876317,7,S05,F,R,30,4
ChD_BB_v2,4,0,1,0,Correct,0.889628110825124,5,S05,F,R,30,4
ChD_BB_v2,4,0,2,0,Correct,0.649740177289186,6,S05,F,R,30,4
ChD_BB_v2,4,0,3,0,Correct,0.819659090212153,6,S05,F,R,30,4
ChD_BB_v2,4,0,4,0,Correct,0.759688813493158,5,S05,F,R,30,4
ChD_BB_v2,4,0,5,1,Wrong,0.679724803649551,7,S05,F,R,30,2
ChD_BB_v2,4,0,6,0,Correct,0.709711819339809,7,S05,F,R,30,4
ChD_BB_v2,4,0,7,1,Correct,0.839653506003488,7,S05,F,R,30,1
ChD_BB_v2,4,0,8,0,Correct,1.05954804774727,5,S05,F,R,30,4
ChD_BB_v2,4,0,9,1,Correct,0.859641436466409,6,S05,F,R,30,1
ChD_BB_v2,4,0,10,1,Correct,0.699715806109998,5,S05,F,R,30,1
ChD_BB_v2,4,0,11,0,Correct,0.969589731337928,7,S05,F,R,30,4
ChD_BB_v2,4,0,12,1,Wrong,0.969594510000443,5,S05,F,R,30,2
ChD_BB_v2,4,0,13,1,Correct,1.43937026784581,6,S05,F,R,30,1
ChD_BB_v2,4,0,14,0,Correct,0.739697469699349,5,S05,F,R,30,4
ChD_BB_v2,4,0,15,0,Correct,1.23946433923167,5,S05,F,R,30,4
ChD_BB_v2,4,0,16,1,Correct,0.699720243439151,6,S05,F,R,30,1
ChD_BB_v2,4,0,17,0,Correct,1.46935660087025,6,S05,F,R,30,4
ChD_BB_v2,4,0,18,0,Wrong,0.859728476392665,5,S05,F,R,30,3
ChD_BB_v2,4,0,19,1,Wrong,0.999580501692435,5,S05,F,R,30,2
ChD_BB_v2,4,0,20,0,Correct,0.69971614744336,6,S05,F,R,30,4
ChD_BB_v2,4,0,21,1,Wrong,0.999578795027446,7,S05,F,R,30,2
ChD_BB_v2,4,0,22,1,Wrong,1.60929088743376,7,S05,F,R,30,2
ChD_BB_v2,4,0,23,1,Wrong,0.999577771028271,6,S05,F,R,30,2
ChD_BB_v2,4,0,24,0,Correct,0.94966732813109,7,S05,F,R,30,4
ChD_BB_v2,4,0,25,1,Wrong,0.849647471234948,6,S05,F,R,30,2
ChD_BB_v2,4,0,26,1,Correct,0.769686533387958,7,S05,F,R,30,1
ChD_BB_v2,4,0,27,1,Wrong,1.35940932999973,6,S05,F,R,30,2
ChD_BB_v2,4,0,28,1,Correct,0.629757366821232,6,S05,F,R,30,1
ChD_BB_v2,4,0,29,1,Wrong,1.31942630107784,6,S05,F,R,30,2
ChD_BB_v2,4,0,30,0,Correct,1.13951308159096,6,S05,F,R,30,4
ChD_BB_v2,4,0,31,0,Correct,0.829654420776151,7,S05,F,R,30,4
ChD_BB_v2,4,0,32,0,Wrong,0.769684485389607,7,S05,F,R,30,3
ChD_BB_v2,4,0,33,1,Correct,0.549787212981664,7,S05,F,R,30,1
ChD_BB_v2,4,0,34,0,Wrong,0.709712502006532,5,S05,F,R,30,3
ChD_BB_v2,4,0,35,0,Wrong,1.10952708989806,7,S05,F,R,30,3
ChD_BB_v2,4,0,36,0,Correct,0.799669111749972,6,S05,F,R,30,4
