version,block,frequency,trial,change,response,RT,loads,ID,gender,hand,age,resp_type
ChD_BB_v3,1,7,1,1,Wrong,0.820442838208819,6,S02,F,R,20,2
ChD_BB_v3,1,7,2,0,Correct,1.4007176861192,6,S02,F,R,20,4
ChD_BB_v3,1,7,3,1,Correct,0.920487177325267,5,S02,F,R,20,1
ChD_BB_v3,1,7,4,1,Correct,1.09056654741635,6,S02,F,R,20,1
ChD_BB_v3,1,7,5,0,Correct,1.29066410030005,5,S02,F,R,20,4
ChD_BB_v3,1,7,6,0,Correct,1.8709437268684,7,S02,F,R,20,4
ChD_BB_v3,1,7,7,1,Correct,1.35069978321947,5,S02,F,R,20,1
ChD_BB_v3,1,7,8,1,Wrong,1.27065448154455,5,S02,F,R,20,2
ChD_BB_v3,1,7,9,0,Correct,0.970509517550058,7,S02,F,R,20,4
ChD_BB_v3,1,7,10,0,Correct,1.85093410811289,6,S02,F,R,20,4
ChD_BB_v3,1,7,11,1,Correct,1.52077608131621,7,S02,F,R,20,1
ChD_BB_v3,1,7,12,1,Correct,1.03053769115053,7,S02,F,R,20,1
ChD_BB_v3,1,7,13,1,Timeout,NaN,7,S02,F,R,20,0
ChD_BB_v3,1,7,14,0,Correct,1.2906644416325,5,S02,F,R,20,4
ChD_BB_v3,1,7,15,0,Correct,1.02053595376723,5,S02,F,R,20,4
ChD_BB_v3,1,7,16,0,Correct,0.750404735240295,7,S02,F,R,20,4
ChD_BB_v3,1,7,17,0,Correct,0.990526645624509,7,S02,F,R,20,4
ChD_BB_v3,1,7,18,0,Correct,0.740403680522131,5,S02,F,R,20,4
ChD_BB_v3,1,7,19,1,Wrong,0.660362133506915,5,S02,F,R,20,2
ChD_BB_v3,1,7,20,0,Correct,0.910480319951553,5,S02,F,R,20,4
ChD_BB_v3,1,7,21,1,Wrong,1.16060294372148,7,S02,F,R,20,2
ChD_BB_v3,1,7,22,1,Correct,0.760413640610313,7,S02,F,R,20,1
ChD_BB_v3,1,7,23,0,Correct,1.21062630794431,5,S02,F,R,20,4
ChD_BB_v3,1,7,24,1,Correct,1.16060669838118,5,S02,F,R,20,1
ChD_BB_v3,1,7,25,1,Correct,1.12058268221266,7,S02,F,R,20,1
ChD_BB_v3,1,7,26,0,Correct,1.07055692866085,7,S02,F,R,20,4
ChD_BB_v3,1,7,27,1,Correct,1.26064864816887,6,S02,F,R,20,1
ChD_BB_v3,1,7,28,0,Correct,0.670369673546215,6,S02,F,R,20,4
ChD_BB_v3,1,7,29,1,Correct,0.940506694728929,7,S02,F,R,20,1
ChD_BB_v3,1,7,30,0,Correct,1.03054042181219,6,S02,F,R,20,4
ChD_BB_v3,1,7,31,1,Correct,1.51076956527517,6,S02,F,R,20,1
ChD_BB_v3,1,7,32,0,Correct,0.680373800258494,5,S02,F,R,20,4
ChD_BB_v3,1,7,33,0,Wrong,1.51077195460416,6,S02,F,R,20,3
ChD_BB_v3,1,7,34,0,Correct,1.05054730990557,7,S02,F,R,20,4
ChD_BB_v3,1,7,35,1,Correct,1.09057371540307,6,S02,F,R,20,1
ChD_BB_v3,1,7,36,0,Correct,1.27065550554259,7,S02,F,R,20,4
ChD_BB_v3,1,7,37,1,Correct,1.05055311256181,7,S02,F,R,20,1
ChD_BB_v3,1,7,38,0,Correct,1.03053939781392,6,S02,F,R,20,4
ChD_BB_v3,1,7,39,1,Correct,1.01052773106257,7,S02,F,R,20,1
ChD_BB_v3,1,7,40,0,Correct,0.880466233151546,5,S02,F,R,20,4
ChD_BB_v3,1,7,41,1,Correct,0.980514668260375,6,S02,F,R,20,1
ChD_BB_v3,1,7,42,1,Wrong,1.07055863532447,6,S02,F,R,20,2
ChD_BB_v3,1,7,43,1,Correct,1.51076854127691,7,S02,F,R,20,1
ChD_BB_v3,1,7,44,0,Correct,0.840449384969979,6,S02,F,R,20,4
ChD_BB_v3,1,7,45,0,Correct,1.49076062918526,5,S02,F,R,20,4
ChD_BB_v3,1,7,46,1,Wrong,1.91096330571185,7,S02,F,R,20,2
ChD_BB_v3,1,7,47,0,Correct,0.940495772082731,5,S02,F,R,20,4
ChD_BB_v3,1,7,48,0,Wrong,0.970541602823064,5,S02,F,R,20,3
ChD_BB_v3,1,7,49,1,Correct,1.05055413655962,7,S02,F,R,20,1
ChD_BB_v3,1,7,50,1,Wrong,1.71086745949155,5,S02,F,R,20,2
ChD_BB_v3,1,7,51,1,Wrong,1.71086609416083,6,S02,F,R,20,2
ChD_BB_v3,1,7,52,0,Wrong,1.2006201332355,7,S02,F,R,20,3
ChD_BB_v3,1,7,53,1,Wrong,1.81091487060257,6,S02,F,R,20,2
ChD_BB_v3,1,7,54,0,Correct,1.23063524403422,5,S02,F,R,20,4
ChD_BB_v3,1,7,55,0,Correct,1.13058919825392,7,S02,F,R,20,4
ChD_BB_v3,1,7,56,0,Correct,0.730395799150151,5,S02,F,R,20,4
ChD_BB_v3,1,7,57,1,Correct,1.36069810727597,6,S02,F,R,20,1
ChD_BB_v3,1,7,58,1,Wrong,1.24063937074605,7,S02,F,R,20,2
ChD_BB_v3,1,7,59,0,Correct,0.950498874796745,6,S02,F,R,20,4
ChD_BB_v3,1,7,60,1,Wrong,1.00052531101392,6,S02,F,R,20,2
ChD_BB_v3,1,7,61,1,Correct,1.10057442878856,5,S02,F,R,20,1
ChD_BB_v3,1,7,62,1,Correct,1.31067679104921,6,S02,F,R,20,1
ChD_BB_v3,1,7,63,1,Wrong,0.83053655958955,5,S02,F,R,20,2
ChD_BB_v3,1,7,64,0,Correct,1.00052496968101,5,S02,F,R,20,4
ChD_BB_v3,1,7,65,0,Correct,1.63082659514147,7,S02,F,R,20,4
ChD_BB_v3,1,7,66,0,Correct,0.830443892926528,6,S02,F,R,20,4
ChD_BB_v3,1,7,67,1,Correct,1.00052428701565,5,S02,F,R,20,1
ChD_BB_v3,1,7,68,0,Wrong,1.61082380303978,6,S02,F,R,20,3
ChD_BB_v3,1,7,69,1,Wrong,1.69085613407265,6,S02,F,R,20,2
ChD_BB_v3,1,7,70,0,Correct,0.840448019638807,5,S02,F,R,20,4
ChD_BB_v3,1,7,71,1,Correct,1.09057030207628,7,S02,F,R,20,1
ChD_BB_v3,1,7,72,0,Correct,1.87096045217037,6,S02,F,R,20,4
ChD_BB_v3,2,0,1,1,Correct,1.15061281164974,5,S02,F,R,20,1
ChD_BB_v3,2,0,2,0,Correct,1.86093721082713,7,S02,F,R,20,4
ChD_BB_v3,2,0,3,1,Wrong,1.25064486278904,6,S02,F,R,20,2
ChD_BB_v3,2,0,4,1,Correct,0.900476193239274,7,S02,F,R,20,1
ChD_BB_v3,2,0,5,0,Correct,1.03053973914683,6,S02,F,R,20,4
ChD_BB_v3,2,0,6,1,Correct,1.47075032776462,6,S02,F,R,20,1
ChD_BB_v3,2,0,7,1,Wrong,0.910488853268766,5,S02,F,R,20,2
ChD_BB_v3,2,0,8,1,Correct,1.12058268221266,5,S02,F,R,20,1
ChD_BB_v3,2,0,9,1,Wrong,1.37071452196516,7,S02,F,R,20,2
ChD_BB_v3,2,0,10,0,Correct,1.67084753931564,6,S02,F,R,20,4
ChD_BB_v3,2,0,11,0,Correct,1.0905754220667,5,S02,F,R,20,4
ChD_BB_v3,2,0,12,1,Correct,0.970508152219113,5,S02,F,R,20,1
ChD_BB_v3,2,0,13,0,Correct,0.990519477638013,6,S02,F,R,20,4
ChD_BB_v3,2,0,14,0,Correct,1.68085166602747,6,S02,F,R,20,4
ChD_BB_v3,2,0,15,1,Wrong,1.50076373189927,6,S02,F,R,20,2
ChD_BB_v3,2,0,16,0,Correct,1.31067337772242,6,S02,F,R,20,4
ChD_BB_v3,2,0,17,0,Correct,1.06055382594684,5,S02,F,R,20,4
ChD_BB_v3,2,0,18,0,Correct,1.3206775044347,6,S02,F,R,20,4
ChD_BB_v3,2,0,19,0,Wrong,2.03101931157988,7,S02,F,R,20,3
ChD_BB_v3,2,0,20,1,Correct,1.73087571291611,7,S02,F,R,20,1
ChD_BB_v3,2,0,21,0,Correct,1.39071151141061,6,S02,F,R,20,4
ChD_BB_v3,2,0,22,0,Correct,1.41072078883344,6,S02,F,R,20,4
ChD_BB_v3,2,0,23,0,Correct,1.95098151922368,7,S02,F,R,20,4
ChD_BB_v3,2,0,24,0,Correct,1.76088911705076,5,S02,F,R,20,4
ChD_BB_v3,2,0,25,0,Correct,0.910481343949819,5,S02,F,R,20,4
ChD_BB_v3,2,0,26,1,Correct,1.83092244136131,7,S02,F,R,20,1
ChD_BB_v3,2,0,27,1,Correct,1.0905685954122,5,S02,F,R,20,1
ChD_BB_v3,2,0,28,1,Correct,0.840445630309823,6,S02,F,R,20,1
ChD_BB_v3,2,0,29,0,Correct,0.800431512789692,7,S02,F,R,20,4
ChD_BB_v3,2,0,30,0,Correct,1.0905679127473,5,S02,F,R,20,4
ChD_BB_v3,2,0,31,1,Wrong,0.980514326927923,5,S02,F,R,20,2
ChD_BB_v3,2,0,32,0,Correct,0.920486835992815,6,S02,F,R,20,4
ChD_BB_v3,2,0,33,1,Correct,0.910481343949364,7,S02,F,R,20,1
ChD_BB_v3,2,0,34,1,Wrong,0.860457979726989,5,S02,F,R,20,2
ChD_BB_v3,2,0,35,1,Wrong,1.66084170593974,5,S02,F,R,20,2
ChD_BB_v3,2,0,36,0,Correct,0.820437376885266,7,S02,F,R,20,4
ChD_BB_v3,2,0,37,0,Correct,0.820447275533652,5,S02,F,R,20,4
ChD_BB_v3,2,0,38,0,Correct,1.00052428701565,7,S02,F,R,20,4
ChD_BB_v3,2,0,39,1,Correct,0.590326419867147,6,S02,F,R,20,1
ChD_BB_v3,2,0,40,1,Wrong,1.61081731771864,7,S02,F,R,20,2
ChD_BB_v3,2,0,41,1,Correct,0.830441844930451,5,S02,F,R,20,1
ChD_BB_v3,2,0,42,0,Correct,1.56079361216336,7,S02,F,R,20,4
ChD_BB_v3,2,0,43,1,Wrong,0.740403339189679,5,S02,F,R,20,2
ChD_BB_v3,2,0,44,0,Correct,1.51076888260981,6,S02,F,R,20,4
ChD_BB_v3,2,0,45,1,Correct,1.18065625306154,6,S02,F,R,20,1
ChD_BB_v3,2,0,46,0,Correct,0.740409141845457,5,S02,F,R,20,4
ChD_BB_v3,2,0,47,0,Correct,1.37070155132289,6,S02,F,R,20,4
ChD_BB_v3,2,0,48,0,Wrong,0.900476193239274,6,S02,F,R,20,3
ChD_BB_v3,2,0,49,0,Wrong,0.800428440795349,7,S02,F,R,20,3
ChD_BB_v3,2,0,50,0,Correct,0.820441131544967,7,S02,F,R,20,4
ChD_BB_v3,2,0,51,1,Correct,1.75088396634067,5,S02,F,R,20,1
ChD_BB_v3,2,0,52,1,Wrong,0.860457638394082,7,S02,F,R,20,2
ChD_BB_v3,2,0,53,1,Wrong,1.39071185274398,7,S02,F,R,20,2
ChD_BB_v3,2,0,54,1,Correct,0.730394092486981,5,S02,F,R,20,1
ChD_BB_v3,2,0,55,1,Wrong,0.910480661284005,6,S02,F,R,20,2
ChD_BB_v3,2,0,56,0,Correct,1.01053182705518,6,S02,F,R,20,4
ChD_BB_v3,2,0,57,0,Correct,1.13058919825392,7,S02,F,R,20,4
ChD_BB_v3,2,0,58,1,Correct,1.13058715025785,5,S02,F,R,20,1
ChD_BB_v3,2,0,59,0,Correct,0.810576430633314,5,S02,F,R,20,4
ChD_BB_v3,2,0,60,0,Correct,1.0705866246051,7,S02,F,R,20,4
ChD_BB_v3,2,0,61,1,Wrong,1.1505950623495,6,S02,F,R,20,2
ChD_BB_v3,2,0,62,1,Correct,1.08056788202717,6,S02,F,R,20,1
ChD_BB_v3,2,0,63,1,Correct,1.01052807239502,5,S02,F,R,20,1
ChD_BB_v3,2,0,64,0,Correct,1.07055897665738,7,S02,F,R,20,4
ChD_BB_v3,2,0,65,1,Wrong,0.380226105602569,6,S02,F,R,20,2
ChD_BB_v3,2,0,66,0,Correct,0.990519136305561,7,S02,F,R,20,4
ChD_BB_v3,2,0,67,1,Correct,0.810435298169064,5,S02,F,R,20,1
ChD_BB_v3,2,0,68,0,Correct,1.31067440172068,7,S02,F,R,20,4
ChD_BB_v3,2,0,69,1,Correct,1.28066031492022,6,S02,F,R,20,1
ChD_BB_v3,2,0,70,1,Wrong,1.1906146411925,5,S02,F,R,20,2
ChD_BB_v3,2,0,71,1,Wrong,1.11059937679497,7,S02,F,R,20,2
ChD_BB_v3,2,0,72,0,Correct,1.6608423886051,7,S02,F,R,20,4
ChD_BB_v3,3,4,1,1,Wrong,1.51076854127691,6,S02,F,R,20,2
ChD_BB_v3,3,4,2,0,Correct,0.990519477638468,6,S02,F,R,20,4
ChD_BB_v3,3,4,3,1,Correct,1.22063384798338,7,S02,F,R,20,1
ChD_BB_v3,3,4,4,0,Correct,1.13082271236329,6,S02,F,R,20,4
ChD_BB_v3,3,4,5,1,Correct,1.36069878994133,5,S02,F,R,20,1
ChD_BB_v3,3,4,6,0,Correct,1.30067027500795,5,S02,F,R,20,4
ChD_BB_v3,3,4,7,1,Wrong,1.45074378100369,6,S02,F,R,20,2
ChD_BB_v3,3,4,8,1,Wrong,1.50076714522606,6,S02,F,R,20,2
ChD_BB_v3,3,4,9,0,Correct,0.800434243451127,5,S02,F,R,20,4
ChD_BB_v3,3,4,10,0,Correct,1.59080974695944,6,S02,F,R,20,4
ChD_BB_v3,3,4,11,1,Correct,0.990520160303372,6,S02,F,R,20,1
ChD_BB_v3,3,4,12,0,Correct,0.930495058697247,6,S02,F,R,20,4
ChD_BB_v3,3,4,13,1,Wrong,1.3707394392519,5,S02,F,R,20,2
ChD_BB_v3,3,4,14,0,Correct,0.820437035552814,5,S02,F,R,20,4
ChD_BB_v3,3,4,15,0,Correct,0.970510541548097,5,S02,F,R,20,4
ChD_BB_v3,3,4,16,1,Wrong,1.47074998643217,5,S02,F,R,20,2
ChD_BB_v3,3,4,17,0,Correct,0.860456955728723,7,S02,F,R,20,4
ChD_BB_v3,3,4,18,1,Correct,1.07056136598591,7,S02,F,R,20,1
ChD_BB_v3,3,4,19,0,Wrong,1.78089941847139,7,S02,F,R,20,3
ChD_BB_v3,3,4,20,1,Correct,0.720389624441796,6,S02,F,R,20,1
ChD_BB_v3,3,4,21,0,Correct,0.78041813937517,7,S02,F,R,20,4
ChD_BB_v3,3,4,22,0,Correct,1.38070738469879,6,S02,F,R,20,4
ChD_BB_v3,3,4,23,1,Correct,1.54078433474099,5,S02,F,R,20,1
ChD_BB_v3,3,4,24,1,Correct,0.88046589181864,5,S02,F,R,20,1
ChD_BB_v3,3,4,25,0,Correct,1.66084204727264,7,S02,F,R,20,4
ChD_BB_v3,3,4,26,0,Correct,1.51077161327125,6,S02,F,R,20,4
ChD_BB_v3,3,4,27,0,Correct,0.6703652362207,6,S02,F,R,20,4
ChD_BB_v3,3,4,28,1,Correct,1.81091487060211,7,S02,F,R,20,1
ChD_BB_v3,3,4,29,0,Correct,0.930489938706828,5,S02,F,R,20,4
ChD_BB_v3,3,4,30,0,Correct,1.57079876287391,6,S02,F,R,20,4
ChD_BB_v3,3,4,31,0,Correct,0.710386180394876,5,S02,F,R,20,4
ChD_BB_v3,3,4,32,0,Correct,1.46076087835824,6,S02,F,R,20,4
ChD_BB_v3,3,4,33,0,Correct,0.920485470662097,5,S02,F,R,20,4
ChD_BB_v3,3,4,34,1,Correct,1.33068265514524,7,S02,F,R,20,1
ChD_BB_v3,3,4,35,0,Correct,0.860460710388425,7,S02,F,R,20,4
ChD_BB_v3,3,4,36,1,Correct,0.840452798296319,5,S02,F,R,20,1
ChD_BB_v3,3,4,37,1,Correct,1.81091896659518,5,S02,F,R,20,1
ChD_BB_v3,3,4,38,0,Correct,0.900477899902899,7,S02,F,R,20,4
ChD_BB_v3,3,4,39,0,Correct,1.84092656807405,7,S02,F,R,20,4
ChD_BB_v3,3,4,40,1,Wrong,1.67084685665028,7,S02,F,R,20,2
ChD_BB_v3,3,4,41,0,Correct,0.9004816545626,6,S02,F,R,20,4
ChD_BB_v3,3,4,42,1,Correct,1.42072696354225,5,S02,F,R,20,1
ChD_BB_v3,3,4,43,1,Wrong,1.7008612847832,7,S02,F,R,20,2
ChD_BB_v3,3,4,44,0,Correct,0.950505360117882,6,S02,F,R,20,4
ChD_BB_v3,3,4,45,0,Correct,0.970513272209532,6,S02,F,R,20,4
ChD_BB_v3,3,4,46,1,Correct,1.46075814769681,7,S02,F,R,20,1
ChD_BB_v3,3,4,47,1,Correct,1.44073726496243,5,S02,F,R,20,1
ChD_BB_v3,3,4,48,1,Correct,1.01053046172446,7,S02,F,R,20,1
ChD_BB_v3,3,4,49,1,Wrong,1.60081558033535,7,S02,F,R,20,2
ChD_BB_v3,3,4,50,1,Wrong,0.970510541548097,7,S02,F,R,20,2
ChD_BB_v3,3,4,51,1,Correct,1.35069363923124,6,S02,F,R,20,1
ChD_BB_v3,3,4,52,0,Correct,1.38070772603124,6,S02,F,R,20,4
ChD_BB_v3,3,4,53,0,Correct,0.700380347018972,5,S02,F,R,20,4
ChD_BB_v3,3,4,54,0,Correct,1.91096262304604,7,S02,F,R,20,4
ChD_BB_v3,3,4,55,0,Wrong,1.4007159794558,5,S02,F,R,20,3
ChD_BB_v3,3,4,56,1,Wrong,1.03053837381611,6,S02,F,R,20,2
ChD_BB_v3,3,4,57,1,Correct,1.11057753150212,7,S02,F,R,20,1
ChD_BB_v3,3,4,58,1,Wrong,1.63082761913973,5,S02,F,R,20,2
ChD_BB_v3,3,4,59,1,Correct,0.780422918032682,6,S02,F,R,20,1
ChD_BB_v3,3,4,60,1,Wrong,1.24064005341186,5,S02,F,R,20,2
ChD_BB_v3,3,4,61,0,Correct,1.01053012039155,5,S02,F,R,20,4
ChD_BB_v3,3,4,62,1,Wrong,1.19069291556798,7,S02,F,R,20,2
ChD_BB_v3,3,4,63,0,Correct,0.800428440795349,5,S02,F,R,20,4
ChD_BB_v3,3,4,64,0,Correct,0.720389283109344,6,S02,F,R,20,4
ChD_BB_v3,3,4,65,0,Correct,1.48075513714226,7,S02,F,R,20,4
ChD_BB_v3,3,4,66,0,Correct,1.53078020802871,5,S02,F,R,20,4
ChD_BB_v3,3,4,67,0,Correct,0.970514296207798,5,S02,F,R,20,4
ChD_BB_v3,3,4,68,1,Wrong,1.3907104874128,7,S02,F,R,20,2
ChD_BB_v3,3,4,69,1,Wrong,1.13058851558857,7,S02,F,R,20,2
ChD_BB_v3,3,4,70,1,Correct,0.6803703869317,7,S02,F,R,20,1
ChD_BB_v3,3,4,71,1,Wrong,1.59081316028669,6,S02,F,R,20,2
ChD_BB_v3,3,4,72,1,Wrong,1.11058640615269,6,S02,F,R,20,2
ChD_BB_v3,4,7,1,1,Correct,1.38071694201427,5,S02,F,R,20,1
ChD_BB_v3,4,7,2,1,Correct,0.960507438833629,5,S02,F,R,20,1
ChD_BB_v3,4,7,3,0,Correct,0.910482709280536,5,S02,F,R,20,4
ChD_BB_v3,4,7,4,0,Correct,1.20063242121287,5,S02,F,R,20,4
ChD_BB_v3,4,7,5,1,Correct,0.800429123461163,6,S02,F,R,20,1
ChD_BB_v3,4,7,6,1,Correct,0.920485811994549,5,S02,F,R,20,1
ChD_BB_v3,4,7,7,0,Correct,1.62091962873273,7,S02,F,R,20,4
ChD_BB_v3,4,7,8,1,Wrong,0.800428782128256,7,S02,F,R,20,2
ChD_BB_v3,4,7,9,0,Correct,0.810438711496313,5,S02,F,R,20,4
ChD_BB_v3,4,7,10,1,Wrong,0.710386521727783,5,S02,F,R,20,2
ChD_BB_v3,4,7,11,0,Correct,1.24064517340228,6,S02,F,R,20,4
ChD_BB_v3,4,7,12,0,Correct,0.910484074611254,7,S02,F,R,20,4
ChD_BB_v3,4,7,13,1,Correct,0.960536452112974,7,S02,F,R,20,1
ChD_BB_v3,4,7,14,1,Correct,0.700380347018972,7,S02,F,R,20,1
ChD_BB_v3,4,7,15,0,Correct,0.660359744178159,5,S02,F,R,20,4
ChD_BB_v3,4,7,16,0,Correct,1.61083404302107,6,S02,F,R,20,4
ChD_BB_v3,4,7,17,0,Correct,0.830442868928717,6,S02,F,R,20,4
ChD_BB_v3,4,7,18,1,Wrong,1.02053663643236,5,S02,F,R,20,2
ChD_BB_v3,4,7,19,1,Wrong,0.820441131545422,5,S02,F,R,20,2
ChD_BB_v3,4,7,20,1,Correct,0.730394433819433,7,S02,F,R,20,1
ChD_BB_v3,4,7,21,1,Wrong,0.950500581460369,6,S02,F,R,20,2
ChD_BB_v3,4,7,22,0,Correct,1.59080804029627,7,S02,F,R,20,4
ChD_BB_v3,4,7,23,0,Wrong,1.25064520412241,6,S02,F,R,20,3
ChD_BB_v3,4,7,24,1,Wrong,0.930492328035357,7,S02,F,R,20,2
ChD_BB_v3,4,7,25,1,Wrong,1.69085954739945,7,S02,F,R,20,2
ChD_BB_v3,4,7,26,1,Wrong,1.22064033330452,5,S02,F,R,20,2
ChD_BB_v3,4,7,27,0,Correct,1.41072147149925,5,S02,F,R,20,4
ChD_BB_v3,4,7,28,1,Wrong,1.4007197341155,7,S02,F,R,20,2
ChD_BB_v3,4,7,29,1,Wrong,1.59080769896337,6,S02,F,R,20,2
ChD_BB_v3,4,7,30,0,Correct,0.700380347018972,7,S02,F,R,20,4
ChD_BB_v3,4,7,31,0,Correct,0.650358348127315,6,S02,F,R,20,4
ChD_BB_v3,4,7,32,0,Correct,1.58080698557788,5,S02,F,R,20,4
ChD_BB_v3,4,7,33,1,Correct,0.890472407859902,7,S02,F,R,20,1
ChD_BB_v3,4,7,34,0,Correct,1.72087124487092,6,S02,F,R,20,4
ChD_BB_v3,4,7,35,0,Correct,1.1706063877684,5,S02,F,R,20,4
ChD_BB_v3,4,7,36,1,Wrong,1.59080769896382,5,S02,F,R,20,2
ChD_BB_v3,4,7,37,0,Correct,0.730395116484792,7,S02,F,R,20,4
ChD_BB_v3,4,7,38,1,Wrong,0.700382395015504,7,S02,F,R,20,2
ChD_BB_v3,4,7,39,1,Correct,0.940495772082731,7,S02,F,R,20,1
ChD_BB_v3,4,7,40,0,Correct,0.610385531862989,7,S02,F,R,20,4
ChD_BB_v3,4,7,41,1,Correct,0.710385497729972,5,S02,F,R,20,1
ChD_BB_v3,4,7,42,0,Correct,1.24063868808069,5,S02,F,R,20,4
ChD_BB_v3,4,7,43,0,Correct,1.47075817841648,6,S02,F,R,20,4
ChD_BB_v3,4,7,44,1,Correct,0.900480289231882,7,S02,F,R,20,1
ChD_BB_v3,4,7,45,0,Correct,0.570318166442589,7,S02,F,R,20,4
ChD_BB_v3,4,7,46,1,Correct,0.930491304037546,6,S02,F,R,20,1
ChD_BB_v3,4,7,47,0,Correct,0.660361109508422,7,S02,F,R,20,4
ChD_BB_v3,4,7,48,1,Wrong,1.00052462834856,5,S02,F,R,20,2
ChD_BB_v3,4,7,49,0,Correct,0.920486835992815,7,S02,F,R,20,4
ChD_BB_v3,4,7,50,0,Correct,1.26065172016321,6,S02,F,R,20,4
ChD_BB_v3,4,7,51,0,Correct,0.850452487683992,7,S02,F,R,20,4
ChD_BB_v3,4,7,52,1,Correct,1.14059093563722,6,S02,F,R,20,1
ChD_BB_v3,4,7,53,1,Correct,1.02053527110164,5,S02,F,R,20,1
ChD_BB_v3,4,7,54,0,Correct,0.90048779855083,5,S02,F,R,20,4
ChD_BB_v3,4,7,55,0,Correct,0.750405417905426,7,S02,F,R,20,4
ChD_BB_v3,4,7,56,1,Wrong,0.890472407859447,6,S02,F,R,20,2
ChD_BB_v3,4,7,57,1,Correct,1.40072519543837,6,S02,F,R,20,1
ChD_BB_v3,4,7,58,0,Correct,0.820439766214249,6,S02,F,R,20,4
ChD_BB_v3,4,7,59,0,Correct,0.670366260218966,6,S02,F,R,20,4
ChD_BB_v3,4,7,60,0,Wrong,1.85093308411485,5,S02,F,R,20,3
ChD_BB_v3,4,7,61,0,Correct,0.660361450841328,6,S02,F,R,20,4
ChD_BB_v3,4,7,62,0,Correct,0.810435639502425,7,S02,F,R,20,4
ChD_BB_v3,4,7,63,1,Correct,0.86045729706163,5,S02,F,R,20,1
ChD_BB_v3,4,7,64,1,Correct,0.970508152219568,7,S02,F,R,20,1
ChD_BB_v3,4,7,65,1,Wrong,0.690375878974696,5,S02,F,R,20,2
ChD_BB_v3,4,7,66,1,Wrong,0.880466574484453,6,S02,F,R,20,2
ChD_BB_v3,4,7,67,0,Correct,0.740406069851115,5,S02,F,R,20,4
ChD_BB_v3,4,7,68,0,Correct,1.580803913584,6,S02,F,R,20,4
ChD_BB_v3,4,7,69,1,Wrong,1.17060707043376,6,S02,F,R,20,2
ChD_BB_v3,4,7,70,0,Correct,1.76089184771219,6,S02,F,R,20,4
ChD_BB_v3,4,7,71,1,Wrong,0.680371069596604,6,S02,F,R,20,2
ChD_BB_v3,4,7,72,1,Correct,0.770414012662436,6,S02,F,R,20,1
ChD_BB_v3,5,4,1,0,Correct,0.840487614230533,7,S02,F,R,20,4
ChD_BB_v3,5,4,2,0,Correct,0.730394433818979,7,S02,F,R,20,4
ChD_BB_v3,5,4,3,0,Correct,0.830450036914758,5,S02,F,R,20,4
ChD_BB_v3,5,4,4,0,Correct,0.770414353995343,5,S02,F,R,20,4
ChD_BB_v3,5,4,5,1,Correct,1.67084719798364,5,S02,F,R,20,1
ChD_BB_v3,5,4,6,0,Correct,1.05054833390429,5,S02,F,R,20,4
ChD_BB_v3,5,4,7,1,Wrong,0.680370045599248,6,S02,F,R,20,2
ChD_BB_v3,5,4,8,1,Wrong,1.08056788202763,7,S02,F,R,20,2
ChD_BB_v3,5,4,9,0,Wrong,0.930501885350836,6,S02,F,R,20,3
ChD_BB_v3,5,4,10,1,Wrong,1.32067852843296,6,S02,F,R,20,2
ChD_BB_v3,5,4,11,1,Correct,0.790422266086539,5,S02,F,R,20,1
ChD_BB_v3,5,4,12,1,Wrong,0.88046759848181,6,S02,F,R,20,2
ChD_BB_v3,5,4,13,1,Correct,1.15059949967456,5,S02,F,R,20,1
ChD_BB_v3,5,4,14,0,Correct,0.890472407859447,7,S02,F,R,20,4
ChD_BB_v3,5,4,15,1,Correct,0.920487859990626,5,S02,F,R,20,1
ChD_BB_v3,5,4,16,0,Correct,0.900480971896786,5,S02,F,R,20,4
ChD_BB_v3,5,4,17,0,Wrong,1.19061566519122,6,S02,F,R,20,3
ChD_BB_v3,5,4,18,0,Correct,1.16060226105566,5,S02,F,R,20,4
ChD_BB_v3,5,4,19,0,Correct,1.24064039474431,7,S02,F,R,20,4
ChD_BB_v3,5,4,20,0,Correct,1.3506950045615,6,S02,F,R,20,4
ChD_BB_v3,5,4,21,1,Wrong,1.01053216838763,7,S02,F,R,20,2
ChD_BB_v3,5,4,22,1,Correct,0.700382395015049,6,S02,F,R,20,1
ChD_BB_v3,5,4,23,0,Wrong,1.14059571429428,5,S02,F,R,20,3
ChD_BB_v3,5,4,24,0,Correct,0.740399243196616,5,S02,F,R,20,4
ChD_BB_v3,5,4,25,0,Correct,1.33072429773395,5,S02,F,R,20,4
ChD_BB_v3,5,4,26,1,Wrong,1.00052394568365,6,S02,F,R,20,2
ChD_BB_v3,5,4,27,1,Wrong,0.950501605458635,7,S02,F,R,20,2
ChD_BB_v3,5,4,28,0,Correct,0.710384815064613,6,S02,F,R,20,4
ChD_BB_v3,5,4,29,0,Wrong,2.42120824263892,7,S02,F,R,20,3
ChD_BB_v3,5,4,30,1,Wrong,1.0105744936417,7,S02,F,R,20,2
ChD_BB_v3,5,4,31,1,Wrong,1.10057408745565,5,S02,F,R,20,2
ChD_BB_v3,5,4,32,0,Correct,1.21068535505837,6,S02,F,R,20,4
ChD_BB_v3,5,4,33,0,Correct,1.20062286389693,7,S02,F,R,20,4
ChD_BB_v3,5,4,34,1,Wrong,0.970511906878815,7,S02,F,R,20,2
ChD_BB_v3,5,4,35,0,Correct,0.730395116484792,5,S02,F,R,20,4
ChD_BB_v3,5,4,36,0,Correct,1.3707029166536,7,S02,F,R,20,4
ChD_BB_v3,5,4,37,0,Wrong,1.62082280976209,6,S02,F,R,20,3
ChD_BB_v3,5,4,38,0,Correct,1.02053492976874,6,S02,F,R,20,4
ChD_BB_v3,5,4,39,1,Wrong,0.940494748084466,7,S02,F,R,20,2
ChD_BB_v3,5,4,40,1,Wrong,0.74039821919835,5,S02,F,R,20,2
ChD_BB_v3,5,4,41,1,Wrong,0.860457638394992,7,S02,F,R,20,2
ChD_BB_v3,5,4,42,0,Correct,1.2806586082566,6,S02,F,R,20,4
ChD_BB_v3,5,4,43,0,Correct,0.870461765105906,7,S02,F,R,20,4
ChD_BB_v3,5,4,44,1,Correct,0.690375537641789,5,S02,F,R,20,1
ChD_BB_v3,5,4,45,1,Wrong,0.680371752261508,6,S02,F,R,20,2
ChD_BB_v3,5,4,46,0,Correct,1.12058370621093,5,S02,F,R,20,4
ChD_BB_v3,5,4,47,0,Correct,0.770415036661157,6,S02,F,R,20,4
ChD_BB_v3,5,4,48,1,Wrong,0.85045385301471,5,S02,F,R,20,2
ChD_BB_v3,5,4,49,1,Wrong,0.830441162265547,7,S02,F,R,20,2
ChD_BB_v3,5,4,50,0,Correct,0.920485470662552,5,S02,F,R,20,4
ChD_BB_v3,5,4,51,0,Correct,0.800428440795804,6,S02,F,R,20,4
ChD_BB_v3,5,4,52,1,Wrong,0.750404735240068,7,S02,F,R,20,2
ChD_BB_v3,5,4,53,1,Correct,0.65036005479094,6,S02,F,R,20,1
ChD_BB_v3,5,4,54,1,Correct,1.86094233081755,7,S02,F,R,20,1
ChD_BB_v3,5,4,55,1,Correct,0.790424996748884,6,S02,F,R,20,1
ChD_BB_v3,5,4,56,1,Wrong,1.21062903860529,5,S02,F,R,20,2
ChD_BB_v3,5,4,57,0,Correct,1.88094956024384,7,S02,F,R,20,4
ChD_BB_v3,5,4,58,0,Correct,0.720390648439607,7,S02,F,R,20,4
ChD_BB_v3,5,4,59,1,Wrong,0.920487859990626,5,S02,F,R,20,2
ChD_BB_v3,5,4,60,1,Correct,0.970510541548097,6,S02,F,R,20,1
ChD_BB_v3,5,4,61,1,Wrong,0.910485439941972,7,S02,F,R,20,2
ChD_BB_v3,5,4,62,0,Correct,0.650365516113811,5,S02,F,R,20,4
ChD_BB_v3,5,4,63,1,Wrong,0.720389965774702,6,S02,F,R,20,2
ChD_BB_v3,5,4,64,1,Wrong,1.09056825408066,7,S02,F,R,20,2
ChD_BB_v3,5,4,65,0,Correct,0.650366198779625,5,S02,F,R,20,4
ChD_BB_v3,5,4,66,1,Wrong,1.13060080356503,6,S02,F,R,20,2
ChD_BB_v3,5,4,67,0,Correct,1.30066822701278,6,S02,F,R,20,4
ChD_BB_v3,5,4,68,1,Correct,0.700380005686066,6,S02,F,R,20,1
ChD_BB_v3,5,4,69,0,Correct,0.710385156397065,7,S02,F,R,20,4
ChD_BB_v3,5,4,70,1,Wrong,1.30066993367595,7,S02,F,R,20,2
ChD_BB_v3,5,4,71,0,Correct,0.690375878974241,6,S02,F,R,20,4
ChD_BB_v3,5,4,72,1,Wrong,0.620344602659761,5,S02,F,R,20,2
ChD_BB_v3,6,0,1,0,Correct,1.09057337407017,6,S02,F,R,20,4
ChD_BB_v3,6,0,2,0,Correct,1.0505490165692,6,S02,F,R,20,4
ChD_BB_v3,6,0,3,1,Correct,0.650355617466335,7,S02,F,R,20,1
ChD_BB_v3,6,0,4,0,Wrong,1.57079705620983,5,S02,F,R,20,3
ChD_BB_v3,6,0,5,1,Correct,0.950502288123539,5,S02,F,R,20,1
ChD_BB_v3,6,0,6,1,Correct,0.890470701196277,7,S02,F,R,20,1
ChD_BB_v3,6,0,7,1,Wrong,1.22062941065923,5,S02,F,R,20,2
ChD_BB_v3,6,0,8,0,Correct,1.18061187981094,6,S02,F,R,20,4
ChD_BB_v3,6,0,9,1,Wrong,1.4507407090098,7,S02,F,R,20,2
ChD_BB_v3,6,0,10,1,Correct,1.15059711034557,6,S02,F,R,20,1
ChD_BB_v3,6,0,11,0,Correct,0.61034798526643,7,S02,F,R,20,4
ChD_BB_v3,6,0,12,0,Correct,0.710385156397065,6,S02,F,R,20,4
ChD_BB_v3,6,0,13,0,Correct,1.05054867523675,6,S02,F,R,20,4
ChD_BB_v3,6,0,14,0,Correct,0.670365918886514,6,S02,F,R,20,4
ChD_BB_v3,6,0,15,1,Wrong,0.730395799149696,7,S02,F,R,20,2
ChD_BB_v3,6,0,16,0,Correct,0.780417798042263,6,S02,F,R,20,4
ChD_BB_v3,6,0,17,0,Correct,0.550307182356596,7,S02,F,R,20,4
ChD_BB_v3,6,0,18,1,Correct,0.780418822040529,5,S02,F,R,20,1
ChD_BB_v3,6,0,19,1,Wrong,1.27065414021141,5,S02,F,R,20,2
ChD_BB_v3,6,0,20,1,Wrong,0.990520160303372,7,S02,F,R,20,2
ChD_BB_v3,6,0,21,0,Correct,0.730395799149696,6,S02,F,R,20,4
ChD_BB_v3,6,0,22,0,Correct,0.570318166443499,5,S02,F,R,20,4
ChD_BB_v3,6,0,23,1,Correct,0.630346681375963,6,S02,F,R,20,1
ChD_BB_v3,6,0,24,0,Correct,0.880466574484453,6,S02,F,R,20,4
ChD_BB_v3,6,0,25,1,Wrong,0.620341189332512,7,S02,F,R,20,2
ChD_BB_v3,6,0,26,0,Correct,0.680370728264152,7,S02,F,R,20,4
ChD_BB_v3,6,0,27,0,Correct,0.610336379955784,7,S02,F,R,20,4
ChD_BB_v3,6,0,28,1,Correct,0.880468281146714,5,S02,F,R,20,1
ChD_BB_v3,6,0,29,0,Correct,0.760409203285253,5,S02,F,R,20,4
ChD_BB_v3,6,0,30,1,Wrong,0.830445599590153,6,S02,F,R,20,2
ChD_BB_v3,6,0,31,0,Correct,0.580326389147476,5,S02,F,R,20,4
ChD_BB_v3,6,0,32,1,Wrong,0.740400267195791,5,S02,F,R,20,2
ChD_BB_v3,6,0,33,0,Correct,0.780418822039619,5,S02,F,R,20,4
ChD_BB_v3,6,0,34,0,Correct,0.620342895996591,6,S02,F,R,20,4
ChD_BB_v3,6,0,35,0,Correct,0.530298246267134,5,S02,F,R,20,4
ChD_BB_v3,6,0,36,0,Wrong,0.850452487683992,5,S02,F,R,20,3
ChD_BB_v3,6,0,37,1,Correct,1.55079153344761,7,S02,F,R,20,1
ChD_BB_v3,6,0,38,1,Wrong,1.02053356443893,5,S02,F,R,20,2
ChD_BB_v3,6,0,39,1,Wrong,0.910481002616457,7,S02,F,R,20,2
ChD_BB_v3,6,0,40,1,Wrong,0.670365577554062,6,S02,F,R,20,2
ChD_BB_v3,6,0,41,1,Correct,1.06055246061612,5,S02,F,R,20,1
ChD_BB_v3,6,0,42,1,Wrong,0.860486651672518,7,S02,F,R,20,2
ChD_BB_v3,6,0,43,1,Wrong,0.560314722395669,7,S02,F,R,20,2
ChD_BB_v3,6,0,44,1,Wrong,0.760411251281785,6,S02,F,R,20,2
ChD_BB_v3,6,0,45,1,Correct,0.700382053682597,7,S02,F,R,20,1
ChD_BB_v3,6,0,46,0,Wrong,0.950500240127008,7,S02,F,R,20,3
ChD_BB_v3,6,0,47,1,Wrong,0.530299952930304,5,S02,F,R,20,2
ChD_BB_v3,6,0,48,0,Correct,0.790428751407676,7,S02,F,R,20,4
ChD_BB_v3,6,0,49,1,Wrong,0.680370728264152,7,S02,F,R,20,2
ChD_BB_v3,6,0,50,1,Correct,1.23063729203076,5,S02,F,R,20,1
ChD_BB_v3,6,0,51,0,Correct,0.480282391363253,7,S02,F,R,20,4
ChD_BB_v3,6,0,52,0,Correct,0.770452241923899,7,S02,F,R,20,4
ChD_BB_v3,6,0,53,0,Correct,0.800428782128256,5,S02,F,R,20,4
ChD_BB_v3,6,0,54,0,Correct,0.700388539003734,6,S02,F,R,20,4
ChD_BB_v3,6,0,55,1,Wrong,0.99051981897092,7,S02,F,R,20,2
ChD_BB_v3,6,0,56,0,Correct,0.490279350089036,5,S02,F,R,20,4
ChD_BB_v3,6,0,57,0,Correct,0.630346340043511,6,S02,F,R,20,4
ChD_BB_v3,6,0,58,0,Correct,0.660360768176424,6,S02,F,R,20,4
ChD_BB_v3,6,0,59,0,Correct,0.880468281147623,6,S02,F,R,20,4
ChD_BB_v3,6,0,60,1,Wrong,0.920487177325722,7,S02,F,R,20,2
ChD_BB_v3,6,0,61,0,Correct,0.790422948752353,5,S02,F,R,20,4
ChD_BB_v3,6,0,62,1,Correct,1.44073658229707,6,S02,F,R,20,1
ChD_BB_v3,6,0,63,0,Correct,0.410240533735482,6,S02,F,R,20,4
ChD_BB_v3,6,0,64,0,Correct,0.650355958798787,6,S02,F,R,20,4
ChD_BB_v3,6,0,65,0,Correct,1.04054284186175,7,S02,F,R,20,4
ChD_BB_v3,6,0,66,1,Wrong,1.21062528394559,5,S02,F,R,20,2
ChD_BB_v3,6,0,67,1,Wrong,1.08056344470211,6,S02,F,R,20,2
ChD_BB_v3,6,0,68,0,Correct,0.87046244777172,5,S02,F,R,20,4
ChD_BB_v3,6,0,69,1,Correct,0.640351490753601,5,S02,F,R,20,1
ChD_BB_v3,6,0,70,1,Correct,1.36069776594351,5,S02,F,R,20,1
ChD_BB_v3,6,0,71,1,Wrong,0.490279691421488,6,S02,F,R,20,2
ChD_BB_v3,6,0,72,1,Wrong,1.32067886976542,7,S02,F,R,20,2
ChD_BB_v3,1,4,1,0,Correct,1.29836668335797,5,S03,F,R,23,4
ChD_BB_v3,1,4,2,1,Correct,0.978780939780954,6,S03,F,R,23,1
ChD_BB_v3,1,4,3,1,Correct,1.37827651660594,5,S03,F,R,23,1
ChD_BB_v3,1,4,4,0,Correct,1.0187290297277,7,S03,F,R,23,4
ChD_BB_v3,1,4,5,1,Correct,1.21847221013333,7,S03,F,R,23,1
ChD_BB_v3,1,4,6,1,Wrong,1.42820010902199,6,S03,F,R,23,2
ChD_BB_v3,1,4,7,0,Correct,1.12858789841774,5,S03,F,R,23,4
ChD_BB_v3,1,4,8,0,Correct,1.08865004848662,7,S03,F,R,23,4
ChD_BB_v3,1,4,9,0,Correct,0.868925143095721,5,S03,F,R,23,4
ChD_BB_v3,1,4,10,0,Correct,0.838967574307562,6,S03,F,R,23,4
ChD_BB_v3,1,4,11,0,Correct,0.739090693430026,6,S03,F,R,23,4
ChD_BB_v3,1,4,12,1,Correct,1.1885084973358,6,S03,F,R,23,1
ChD_BB_v3,1,4,13,1,Correct,1.12858721574988,7,S03,F,R,23,1
ChD_BB_v3,1,4,14,1,Wrong,1.85765120663246,7,S03,F,R,23,2
ChD_BB_v3,1,4,15,0,Correct,1.3283273241507,6,S03,F,R,23,4
ChD_BB_v3,1,4,16,1,Wrong,1.20848783298389,7,S03,F,R,23,2
ChD_BB_v3,1,4,17,1,Wrong,0.878908496243484,7,S03,F,R,23,2
ChD_BB_v3,1,4,18,1,Wrong,0.998765736770793,7,S03,F,R,23,2
ChD_BB_v3,1,4,19,1,Correct,0.899267926388484,6,S03,F,R,23,1
ChD_BB_v3,1,4,20,0,Correct,0.779042196715618,5,S03,F,R,23,4
ChD_BB_v3,1,4,21,0,Wrong,1.31834431233699,5,S03,F,R,23,3
ChD_BB_v3,1,4,22,0,Correct,1.17852343751872,6,S03,F,R,23,4
ChD_BB_v3,1,4,23,0,Correct,1.20848783298412,7,S03,F,R,23,4
ChD_BB_v3,1,4,24,1,Wrong,0.799012999017168,5,S03,F,R,23,2
ChD_BB_v3,1,4,25,0,Wrong,1.37826422858719,5,S03,F,R,23,3
ChD_BB_v3,1,4,26,1,Correct,1.29837043803041,6,S03,F,R,23,1
ChD_BB_v3,1,4,27,1,Correct,1.23844471910442,7,S03,F,R,23,1
ChD_BB_v3,1,4,28,1,Wrong,1.06866388616106,5,S03,F,R,23,2
ChD_BB_v3,1,4,29,0,Wrong,1.49810747442643,7,S03,F,R,23,3
ChD_BB_v3,1,4,30,1,Correct,1.25841791074336,6,S03,F,R,23,1
ChD_BB_v3,1,4,31,1,Correct,1.1785234375185,7,S03,F,R,23,1
ChD_BB_v3,1,4,32,1,Wrong,1.70783912798753,5,S03,F,R,23,2
ChD_BB_v3,1,4,33,0,Correct,1.53805692970867,5,S03,F,R,23,4
ChD_BB_v3,1,4,34,0,Correct,0.99875515542135,7,S03,F,R,23,4
ChD_BB_v3,1,4,35,0,Correct,0.858933939269045,7,S03,F,R,23,4
ChD_BB_v3,1,4,36,0,Correct,0.938839335177172,6,S03,F,R,23,4
ChD_BB_v3,1,4,37,0,Correct,0.898889538561116,6,S03,F,R,23,4
ChD_BB_v3,1,4,38,1,Wrong,1.14863748665393,6,S03,F,R,23,2
ChD_BB_v3,1,4,39,1,Correct,0.968796562631514,5,S03,F,R,23,1
ChD_BB_v3,1,4,40,1,Wrong,1.7477998472873,6,S03,F,R,23,2
ChD_BB_v3,1,4,41,1,Wrong,1.3183439710034,6,S03,F,R,23,2
ChD_BB_v3,1,4,42,0,Correct,0.92884267000898,5,S03,F,R,23,4
ChD_BB_v3,1,4,43,1,Correct,1.05867575433918,7,S03,F,R,23,1
ChD_BB_v3,1,4,44,1,Correct,0.97878128111477,5,S03,F,R,23,1
ChD_BB_v3,1,4,45,0,Correct,0.918858975527401,5,S03,F,R,23,4
ChD_BB_v3,1,4,46,0,Correct,0.868922071091147,6,S03,F,R,23,4
ChD_BB_v3,1,4,47,0,Wrong,1.118599083928,6,S03,F,R,23,3
ChD_BB_v3,1,4,48,0,Correct,0.938830801830627,7,S03,F,R,23,4
ChD_BB_v3,1,4,49,1,Correct,0.918857610191681,7,S03,F,R,23,1
ChD_BB_v3,1,4,50,1,Correct,1.37827003126275,7,S03,F,R,23,1
ChD_BB_v3,1,4,51,1,Correct,1.6579042715544,7,S03,F,R,23,1
ChD_BB_v3,1,4,52,0,Correct,0.8589390592772,5,S03,F,R,23,4
ChD_BB_v3,1,4,53,0,Correct,0.769052358224435,7,S03,F,R,23,4
ChD_BB_v3,1,4,54,0,Correct,0.858939741944378,7,S03,F,R,23,4
ChD_BB_v3,1,4,55,0,Correct,0.858935645938582,5,S03,F,R,23,4
ChD_BB_v3,1,4,56,0,Correct,0.769061232905024,6,S03,F,R,23,4
ChD_BB_v3,1,4,57,1,Wrong,0.878929317608781,5,S03,F,R,23,2
ChD_BB_v3,1,4,58,0,Correct,0.838960406296737,5,S03,F,R,23,4
ChD_BB_v3,1,4,59,1,Wrong,0.659196220205613,5,S03,F,R,23,2
ChD_BB_v3,1,4,60,1,Wrong,0.809002154840946,7,S03,F,R,23,2
ChD_BB_v3,1,4,61,0,Correct,0.699145334154036,7,S03,F,R,23,4
ChD_BB_v3,1,4,62,1,Wrong,0.759062519733252,6,S03,F,R,23,2
ChD_BB_v3,1,4,63,0,Correct,0.709180911382064,6,S03,F,R,23,4
ChD_BB_v3,1,4,64,0,Correct,0.659194513536076,6,S03,F,R,23,4
ChD_BB_v3,1,4,65,1,Correct,0.96880270664089,5,S03,F,R,23,1
ChD_BB_v3,1,4,66,0,Wrong,0.928852910024834,5,S03,F,R,23,3
ChD_BB_v3,1,4,67,1,Correct,1.35829069561465,6,S03,F,R,23,1
ChD_BB_v3,1,4,68,0,Wrong,1.15854717387543,6,S03,F,R,23,3
ChD_BB_v3,1,4,69,1,Wrong,1.0586771196749,5,S03,F,R,23,2
ChD_BB_v3,1,4,70,1,Correct,0.928845059346149,7,S03,F,R,23,1
ChD_BB_v3,1,4,71,1,Correct,0.998754472753717,5,S03,F,R,23,1
ChD_BB_v3,1,4,72,0,Wrong,1.52807016322275,6,S03,F,R,23,3
ChD_BB_v3,2,4,1,0,Correct,1.19850379716872,5,S03,F,R,23,4
ChD_BB_v3,2,4,2,1,Wrong,0.729107681616078,5,S03,F,R,23,2
ChD_BB_v3,2,4,3,0,Correct,0.529407850610805,6,S03,F,R,23,4
ChD_BB_v3,2,4,4,1,Correct,0.918860682196482,5,S03,F,R,23,1
ChD_BB_v3,2,4,5,1,Correct,0.81898823865924,6,S03,F,R,23,1
ChD_BB_v3,2,4,6,1,Correct,0.938841041846936,5,S03,F,R,23,1
ChD_BB_v3,2,4,7,0,Correct,0.978778891777601,7,S03,F,R,23,4
ChD_BB_v3,2,4,8,1,Correct,0.779049364726216,5,S03,F,R,23,1
ChD_BB_v3,2,4,9,1,Correct,0.74907677724832,7,S03,F,R,23,1
ChD_BB_v3,2,4,10,0,Wrong,0.739100592111608,7,S03,F,R,23,3
ChD_BB_v3,2,4,11,0,Correct,0.819000868012263,6,S03,F,R,23,4
ChD_BB_v3,2,4,12,0,Correct,1.1385814915809,7,S03,F,R,23,4
ChD_BB_v3,2,4,13,1,Correct,0.858935987272398,6,S03,F,R,23,1
ChD_BB_v3,2,4,14,1,Correct,0.928846083347598,5,S03,F,R,23,1
ChD_BB_v3,2,4,15,1,Correct,1.14856109005668,6,S03,F,R,23,1
ChD_BB_v3,2,4,16,1,Correct,0.858933597935229,5,S03,F,R,23,1
ChD_BB_v3,2,4,17,1,Correct,0.729102220274108,5,S03,F,R,23,1
ChD_BB_v3,2,4,18,1,Wrong,0.77903741804128,6,S03,F,R,23,2
ChD_BB_v3,2,4,19,0,Correct,0.69913987281252,5,S03,F,R,23,4
ChD_BB_v3,2,4,20,1,Wrong,1.06866388616083,7,S03,F,R,23,2
ChD_BB_v3,2,4,21,0,Correct,0.799014023018844,6,S03,F,R,23,4
ChD_BB_v3,2,4,22,1,Correct,1.14856894073537,6,S03,F,R,23,1
ChD_BB_v3,2,4,23,1,Correct,1.03870597603885,7,S03,F,R,23,1
ChD_BB_v3,2,4,24,0,Wrong,1.10861846145168,7,S03,F,R,23,3
ChD_BB_v3,2,4,25,0,Correct,0.948818592318912,5,S03,F,R,23,4
ChD_BB_v3,2,4,26,0,Wrong,1.07865099398148,7,S03,F,R,23,3
ChD_BB_v3,2,4,27,1,Wrong,0.779040148712265,7,S03,F,R,23,2
ChD_BB_v3,2,4,28,1,Correct,0.918855220854966,5,S03,F,R,23,1
ChD_BB_v3,2,4,29,0,Wrong,1.06866661683182,6,S03,F,R,23,3
ChD_BB_v3,2,4,30,0,Correct,0.96879212529122,7,S03,F,R,23,4
ChD_BB_v3,2,4,31,0,Correct,1.07865065264721,7,S03,F,R,23,4
ChD_BB_v3,2,4,32,1,Wrong,0.729108022949895,5,S03,F,R,23,2
ChD_BB_v3,2,4,33,0,Wrong,0.808998741502328,6,S03,F,R,23,3
ChD_BB_v3,2,4,34,1,Correct,1.13857500623748,6,S03,F,R,23,1
ChD_BB_v3,2,4,35,1,Correct,0.978786059788654,5,S03,F,R,23,1
ChD_BB_v3,2,4,36,0,Correct,0.898890562562792,7,S03,F,R,23,4
ChD_BB_v3,2,4,37,1,Correct,0.888899017402528,7,S03,F,R,23,1
ChD_BB_v3,2,4,38,0,Correct,0.769049968887266,6,S03,F,R,23,4
ChD_BB_v3,2,4,39,0,Correct,1.07864962864576,7,S03,F,R,23,4
ChD_BB_v3,2,4,40,0,Correct,0.759073783750555,7,S03,F,R,23,4
ChD_BB_v3,2,4,41,0,Correct,0.729110070953247,5,S03,F,R,23,4
ChD_BB_v3,2,4,42,1,Correct,0.749076094580687,5,S03,F,R,23,1
ChD_BB_v3,2,4,43,1,Correct,0.808998741501873,7,S03,F,R,23,1
ChD_BB_v3,2,4,44,1,Correct,1.07865167664911,7,S03,F,R,23,1
ChD_BB_v3,2,4,45,0,Correct,0.928844035344246,6,S03,F,R,23,4
ChD_BB_v3,2,4,46,0,Correct,0.838998294354442,6,S03,F,R,23,4
ChD_BB_v3,2,4,47,1,Wrong,0.898883735885556,7,S03,F,R,23,2
ChD_BB_v3,2,4,48,1,Correct,0.779039466044633,5,S03,F,R,23,1
ChD_BB_v3,2,4,49,0,Correct,0.828973981143718,7,S03,F,R,23,4
ChD_BB_v3,2,4,50,1,Correct,0.77903741804128,6,S03,F,R,23,1
ChD_BB_v3,2,4,51,0,Wrong,1.1485614313905,5,S03,F,R,23,3
ChD_BB_v3,2,4,52,1,Wrong,0.749076435914958,7,S03,F,R,23,2
ChD_BB_v3,2,4,53,0,Correct,0.629230800738314,7,S03,F,R,23,4
ChD_BB_v3,2,4,54,0,Correct,0.729111436288513,5,S03,F,R,23,4
ChD_BB_v3,2,4,55,1,Correct,1.10861846145122,7,S03,F,R,23,1
ChD_BB_v3,2,4,56,1,Correct,1.21846982079662,6,S03,F,R,23,1
ChD_BB_v3,2,4,57,0,Correct,0.619242327582851,5,S03,F,R,23,4
ChD_BB_v3,2,4,58,0,Correct,0.729104609611277,6,S03,F,R,23,4
ChD_BB_v3,2,4,59,0,Correct,0.55932241133265,7,S03,F,R,23,4
ChD_BB_v3,2,4,60,1,Correct,0.938844113851283,6,S03,F,R,23,1
ChD_BB_v3,2,4,61,0,Correct,1.16866434746473,5,S03,F,R,23,4
ChD_BB_v3,2,4,62,0,Correct,0.818995748004108,6,S03,F,R,23,4
ChD_BB_v3,2,4,63,0,Correct,0.938832508500163,6,S03,F,R,23,4
ChD_BB_v3,2,4,64,0,Correct,1.09864022831162,6,S03,F,R,23,4
ChD_BB_v3,2,4,65,1,Wrong,0.888907209414574,7,S03,F,R,23,2
ChD_BB_v3,2,4,66,0,Correct,0.609255902430741,5,S03,F,R,23,4
ChD_BB_v3,2,4,67,1,Correct,0.938832167165892,6,S03,F,R,23,1
ChD_BB_v3,2,4,68,0,Correct,1.18850918000366,5,S03,F,R,23,4
ChD_BB_v3,2,4,69,0,Correct,0.838964843636349,5,S03,F,R,23,4
ChD_BB_v3,2,4,70,1,Wrong,0.898886125222725,6,S03,F,R,23,2
ChD_BB_v3,2,4,71,1,Wrong,0.838963478301084,6,S03,F,R,23,2
ChD_BB_v3,2,4,72,1,Correct,1.12858687441583,5,S03,F,R,23,1
ChD_BB_v3,3,0,1,0,Correct,0.73908796275904,7,S03,F,R,23,4
ChD_BB_v3,3,0,2,1,Wrong,0.659195537537525,7,S03,F,R,23,2
ChD_BB_v3,3,0,3,0,Correct,0.779042538049434,7,S03,F,R,23,4
ChD_BB_v3,3,0,4,0,Correct,0.779036394039831,7,S03,F,R,23,4
ChD_BB_v3,3,0,5,1,Correct,0.918857951525952,6,S03,F,R,23,1
ChD_BB_v3,3,0,6,0,Correct,1.24846084030241,6,S03,F,R,23,4
ChD_BB_v3,3,0,7,0,Correct,0.649212525723578,6,S03,F,R,23,4
ChD_BB_v3,3,0,8,1,Correct,0.968794855962205,6,S03,F,R,23,1
ChD_BB_v3,3,0,9,0,Correct,0.848947514116935,7,S03,F,R,23,4
ChD_BB_v3,3,0,10,1,Wrong,0.749076435914958,7,S03,F,R,23,2
ChD_BB_v3,3,0,11,1,Correct,0.93883284983398,5,S03,F,R,23,1
ChD_BB_v3,3,0,12,1,Correct,1.14856552739629,7,S03,F,R,23,1
ChD_BB_v3,3,0,13,1,Correct,0.908871867707203,7,S03,F,R,23,1
ChD_BB_v3,3,0,14,0,Correct,0.799012657683579,6,S03,F,R,23,4
ChD_BB_v3,3,0,15,1,Correct,0.89888202921602,7,S03,F,R,23,1
ChD_BB_v3,3,0,16,0,Correct,0.878976018160374,5,S03,F,R,23,4
ChD_BB_v3,3,0,17,1,Correct,0.759063543734701,5,S03,F,R,23,1
ChD_BB_v3,3,0,18,0,Wrong,1.04869376652714,7,S03,F,R,23,3
ChD_BB_v3,3,0,19,1,Correct,0.888905844079309,6,S03,F,R,23,1
ChD_BB_v3,3,0,20,1,Correct,0.868921388423514,6,S03,F,R,23,1
ChD_BB_v3,3,0,21,0,Correct,0.639478097544943,6,S03,F,R,23,4
ChD_BB_v3,3,0,22,0,Wrong,1.00874192190773,5,S03,F,R,23,3
ChD_BB_v3,3,0,23,1,Correct,0.749075411913054,7,S03,F,R,23,1
ChD_BB_v3,3,0,24,0,Correct,0.699142944817322,6,S03,F,R,23,4
ChD_BB_v3,3,0,25,1,Wrong,0.848957412798518,5,S03,F,R,23,2
ChD_BB_v3,3,0,26,1,Correct,0.799012657683579,5,S03,F,R,23,1
ChD_BB_v3,3,0,27,1,Correct,0.808999082836144,6,S03,F,R,23,1
ChD_BB_v3,3,0,28,1,Correct,0.749076435914503,6,S03,F,R,23,1
ChD_BB_v3,3,0,29,0,Correct,0.739248345055184,6,S03,F,R,23,4
ChD_BB_v3,3,0,30,1,Wrong,0.818989945328776,6,S03,F,R,23,2
ChD_BB_v3,3,0,31,1,Wrong,0.769049286220088,5,S03,F,R,23,2
ChD_BB_v3,3,0,32,1,Correct,0.779039124710816,7,S03,F,R,23,1
ChD_BB_v3,3,0,33,0,Correct,0.998756520756615,6,S03,F,R,23,4
ChD_BB_v3,3,0,34,1,Wrong,0.739091034763842,5,S03,F,R,23,2
ChD_BB_v3,3,0,35,0,Correct,0.779038442043184,5,S03,F,R,23,4
ChD_BB_v3,3,0,36,0,Correct,0.66917923201956,5,S03,F,R,23,4
ChD_BB_v3,3,0,37,1,Wrong,0.779115242160951,5,S03,F,R,23,2
ChD_BB_v3,3,0,38,0,Correct,0.759070370412392,7,S03,F,R,23,4
ChD_BB_v3,3,0,39,0,Correct,0.729102220274563,7,S03,F,R,23,4
ChD_BB_v3,3,0,40,1,Correct,0.739095472104364,6,S03,F,R,23,1
ChD_BB_v3,3,0,41,1,Correct,0.749092478606144,6,S03,F,R,23,1
ChD_BB_v3,3,0,42,1,Wrong,0.838961430298186,6,S03,F,R,23,2
ChD_BB_v3,3,0,43,0,Correct,0.838960747630099,5,S03,F,R,23,4
ChD_BB_v3,3,0,44,0,Correct,0.898882370550291,7,S03,F,R,23,4
ChD_BB_v3,3,0,45,1,Correct,0.928843352677068,7,S03,F,R,23,1
ChD_BB_v3,3,0,46,0,Correct,0.739100933445879,5,S03,F,R,23,4
ChD_BB_v3,3,0,47,1,Correct,0.868931969773184,5,S03,F,R,23,1
ChD_BB_v3,3,0,48,1,Correct,0.878909861578977,7,S03,F,R,23,1
ChD_BB_v3,3,0,49,0,Correct,0.818986531990158,6,S03,F,R,23,4
ChD_BB_v3,3,0,50,0,Correct,0.75906217839989,6,S03,F,R,23,4
ChD_BB_v3,3,0,51,1,Correct,0.799010951014043,5,S03,F,R,23,1
ChD_BB_v3,3,0,52,1,Correct,0.978784011785301,7,S03,F,R,23,1
ChD_BB_v3,3,0,53,0,Correct,0.779035711372198,5,S03,F,R,23,4
ChD_BB_v3,3,0,54,0,Wrong,0.80899805883424,5,S03,F,R,23,3
ChD_BB_v3,3,0,55,0,Correct,0.679170094512192,5,S03,F,R,23,4
ChD_BB_v3,3,0,56,0,Correct,0.838959382294834,6,S03,F,R,23,4
ChD_BB_v3,3,0,57,1,Wrong,0.86892684976503,7,S03,F,R,23,2
ChD_BB_v3,3,0,58,0,Correct,0.938829777829178,7,S03,F,R,23,4
ChD_BB_v3,3,0,59,0,Correct,0.739088986760944,5,S03,F,R,23,4
ChD_BB_v3,3,0,60,1,Correct,0.729103244276011,7,S03,F,R,23,1
ChD_BB_v3,3,0,61,0,Wrong,0.838965526304437,6,S03,F,R,23,3
ChD_BB_v3,3,0,62,0,Wrong,1.02872296422536,5,S03,F,R,23,3
ChD_BB_v3,3,0,63,1,Correct,0.799012657683579,5,S03,F,R,23,1
ChD_BB_v3,3,0,64,0,Correct,0.858941107280098,7,S03,F,R,23,4
ChD_BB_v3,3,0,65,0,Wrong,0.988777604949373,5,S03,F,R,23,3
ChD_BB_v3,3,0,66,0,Wrong,0.878907472241808,6,S03,F,R,23,3
ChD_BB_v3,3,0,67,0,Wrong,0.888894921396277,5,S03,F,R,23,3
ChD_BB_v3,3,0,68,0,Wrong,0.868923436426412,6,S03,F,R,23,3
ChD_BB_v3,3,0,69,1,Correct,0.739091034763842,7,S03,F,R,23,1
ChD_BB_v3,3,0,70,1,Correct,0.858934280602862,5,S03,F,R,23,1
ChD_BB_v3,3,0,71,1,Correct,0.729112801624233,6,S03,F,R,23,1
ChD_BB_v3,3,0,72,1,Correct,0.808997717500424,7,S03,F,R,23,1
ChD_BB_v3,4,7,1,1,Correct,1.05867575433918,5,S03,F,R,23,1
ChD_BB_v3,4,7,2,0,Correct,0.749075411913509,5,S03,F,R,23,4
ChD_BB_v3,4,7,3,0,Correct,0.769049286220088,6,S03,F,R,23,4
ChD_BB_v3,4,7,4,1,Correct,0.73908796275904,5,S03,F,R,23,1
ChD_BB_v3,4,7,5,0,Correct,0.958813550817795,7,S03,F,R,23,4
ChD_BB_v3,4,7,6,1,Wrong,0.898892951899506,6,S03,F,R,23,2
ChD_BB_v3,4,7,7,0,Correct,0.649204333711077,5,S03,F,R,23,4
ChD_BB_v3,4,7,8,1,Wrong,0.818986190655887,7,S03,F,R,23,2
ChD_BB_v3,4,7,9,0,Correct,0.838960747630554,6,S03,F,R,23,4
ChD_BB_v3,4,7,10,1,Correct,0.679172483849361,5,S03,F,R,23,1
ChD_BB_v3,4,7,11,0,Correct,0.878909520244706,6,S03,F,R,23,4
ChD_BB_v3,4,7,12,1,Wrong,1.08863776046786,7,S03,F,R,23,2
ChD_BB_v3,4,7,13,0,Wrong,0.848946831449302,6,S03,F,R,23,3
ChD_BB_v3,4,7,14,1,Correct,0.938831825832531,7,S03,F,R,23,1
ChD_BB_v3,4,7,15,0,Correct,0.87890917891089,7,S03,F,R,23,4
ChD_BB_v3,4,7,16,0,Correct,0.818985507988255,7,S03,F,R,23,4
ChD_BB_v3,4,7,17,1,Correct,0.928843352676613,7,S03,F,R,23,1
ChD_BB_v3,4,7,18,1,Wrong,0.779037076707464,7,S03,F,R,23,2
ChD_BB_v3,4,7,19,1,Correct,0.739089669428577,7,S03,F,R,23,1
ChD_BB_v3,4,7,20,0,Wrong,0.818985849322526,6,S03,F,R,23,3
ChD_BB_v3,4,7,21,1,Correct,0.779040490046082,7,S03,F,R,23,1
ChD_BB_v3,4,7,22,1,Correct,0.998759934095688,5,S03,F,R,23,1
ChD_BB_v3,4,7,23,0,Wrong,0.868920705755427,5,S03,F,R,23,3
ChD_BB_v3,4,7,24,1,Correct,0.779036735373647,5,S03,F,R,23,1
ChD_BB_v3,4,7,25,0,Wrong,0.918856586190686,5,S03,F,R,23,3
ChD_BB_v3,4,7,26,0,Wrong,0.938831143164898,6,S03,F,R,23,3
ChD_BB_v3,4,7,27,0,Correct,1.07865031131385,6,S03,F,R,23,4
ChD_BB_v3,4,7,28,0,Correct,0.848950586121282,7,S03,F,R,23,4
ChD_BB_v3,4,7,29,0,Correct,0.858936328606214,7,S03,F,R,23,4
ChD_BB_v3,4,7,30,0,Correct,0.968793149293124,6,S03,F,R,23,4
ChD_BB_v3,4,7,31,1,Correct,0.898882370549836,6,S03,F,R,23,1
ChD_BB_v3,4,7,32,0,Wrong,1.05872558908273,5,S03,F,R,23,3
ChD_BB_v3,4,7,33,1,Correct,0.848957071464702,6,S03,F,R,23,1
ChD_BB_v3,4,7,34,1,Wrong,0.898884077219373,5,S03,F,R,23,2
ChD_BB_v3,4,7,35,0,Correct,0.809004202843844,7,S03,F,R,23,4
ChD_BB_v3,4,7,36,0,Correct,0.828972957142723,7,S03,F,R,23,4
ChD_BB_v3,4,7,37,0,Wrong,1.02871477221241,6,S03,F,R,23,3
ChD_BB_v3,4,7,38,1,Correct,0.838961771631548,5,S03,F,R,23,1
ChD_BB_v3,4,7,39,1,Wrong,0.848950927455098,5,S03,F,R,23,2
ChD_BB_v3,4,7,40,1,Correct,0.858973533996741,5,S03,F,R,23,1
ChD_BB_v3,4,7,41,1,Correct,0.858933597935684,6,S03,F,R,23,1
ChD_BB_v3,4,7,42,1,Correct,0.858962952647071,6,S03,F,R,23,1
ChD_BB_v3,4,7,43,1,Correct,0.878909861578522,7,S03,F,R,23,1
ChD_BB_v3,4,7,44,0,Correct,0.828972957142723,7,S03,F,R,23,4
ChD_BB_v3,4,7,45,1,Correct,1.08863980847076,6,S03,F,R,23,1
ChD_BB_v3,4,7,46,1,Correct,0.858935304604765,6,S03,F,R,23,1
ChD_BB_v3,4,7,47,1,Correct,0.729102220274563,5,S03,F,R,23,1
ChD_BB_v3,4,7,48,0,Correct,0.82897466381135,5,S03,F,R,23,4
ChD_BB_v3,4,7,49,1,Correct,0.739090693430026,6,S03,F,R,23,1
ChD_BB_v3,4,7,50,0,Correct,0.808999082836144,6,S03,F,R,23,4
ChD_BB_v3,4,7,51,0,Wrong,0.858933256601867,6,S03,F,R,23,3
ChD_BB_v3,4,7,52,0,Correct,0.978787766457735,6,S03,F,R,23,4
ChD_BB_v3,4,7,53,0,Correct,0.878910885580426,7,S03,F,R,23,4
ChD_BB_v3,4,7,54,0,Correct,0.7091286873018,5,S03,F,R,23,4
ChD_BB_v3,4,7,55,1,Correct,0.679169070510288,5,S03,F,R,23,1
ChD_BB_v3,4,7,56,1,Correct,1.11860249726662,6,S03,F,R,23,1
ChD_BB_v3,4,7,57,1,Correct,0.8489488794522,6,S03,F,R,23,1
ChD_BB_v3,4,7,58,1,Correct,0.769051334222986,7,S03,F,R,23,1
ChD_BB_v3,4,7,59,1,Correct,0.729116214962396,7,S03,F,R,23,1
ChD_BB_v3,4,7,60,1,Correct,0.759063885068972,6,S03,F,R,23,1
ChD_BB_v3,4,7,61,1,Correct,0.779044927386149,6,S03,F,R,23,1
ChD_BB_v3,4,7,62,1,Correct,0.669182304023907,5,S03,F,R,23,1
ChD_BB_v3,4,7,63,0,Correct,1.03870973071174,5,S03,F,R,23,4
ChD_BB_v3,4,7,64,1,Correct,0.779048340725221,7,S03,F,R,23,1
ChD_BB_v3,4,7,65,0,Correct,0.809000106837593,5,S03,F,R,23,4
ChD_BB_v3,4,7,66,0,Correct,1.06866286215938,5,S03,F,R,23,4
ChD_BB_v3,4,7,67,0,Correct,0.609257267765552,5,S03,F,R,23,4
ChD_BB_v3,4,7,68,0,Correct,0.858935304604311,7,S03,F,R,23,4
ChD_BB_v3,4,7,69,1,Correct,0.828975005145621,7,S03,F,R,23,1
ChD_BB_v3,4,7,70,0,Correct,0.958806724140559,7,S03,F,R,23,4
ChD_BB_v3,4,7,71,0,Correct,0.729101878940746,5,S03,F,R,23,4
ChD_BB_v3,4,7,72,0,Wrong,0.858972509994837,7,S03,F,R,23,3
ChD_BB_v3,5,0,1,1,Correct,0.828976029146616,5,S03,F,R,23,1
ChD_BB_v3,5,0,2,0,Correct,0.559320021995481,6,S03,F,R,23,4
ChD_BB_v3,5,0,3,0,Correct,0.599280058627846,7,S03,F,R,23,4
ChD_BB_v3,5,0,4,0,Wrong,0.809006933514829,5,S03,F,R,23,3
ChD_BB_v3,5,0,5,0,Correct,0.779037418041735,7,S03,F,R,23,4
ChD_BB_v3,5,0,6,1,Correct,0.709135855312852,5,S03,F,R,23,1
ChD_BB_v3,5,0,7,1,Correct,0.679169411844559,5,S03,F,R,23,1
ChD_BB_v3,5,0,8,0,Correct,0.888897993401079,7,S03,F,R,23,4
ChD_BB_v3,5,0,9,1,Correct,0.739090010762848,5,S03,F,R,23,1
ChD_BB_v3,5,0,10,1,Correct,0.76905099288826,7,S03,F,R,23,1
ChD_BB_v3,5,0,11,0,Correct,0.749080531921209,5,S03,F,R,23,4
ChD_BB_v3,5,0,12,0,Correct,0.699140555479244,7,S03,F,R,23,4
ChD_BB_v3,5,0,13,1,Correct,0.649210819054497,6,S03,F,R,23,1
ChD_BB_v3,5,0,14,0,Correct,0.918867850207534,5,S03,F,R,23,4
ChD_BB_v3,5,0,15,1,Correct,0.699152502165089,5,S03,F,R,23,1
ChD_BB_v3,5,0,16,0,Correct,0.729101537606475,6,S03,F,R,23,4
ChD_BB_v3,5,0,17,0,Correct,0.81898960399496,7,S03,F,R,23,4
ChD_BB_v3,5,0,18,0,Correct,0.908869478370034,6,S03,F,R,23,4
ChD_BB_v3,5,0,19,1,Correct,0.599278693292581,6,S03,F,R,23,1
ChD_BB_v3,5,0,20,0,Correct,0.759062178399436,6,S03,F,R,23,4
ChD_BB_v3,5,0,21,1,Wrong,0.649205357712526,5,S03,F,R,23,2
ChD_BB_v3,5,0,22,1,Correct,0.71911511245391,6,S03,F,R,23,1
ChD_BB_v3,5,0,23,0,Correct,0.729102220274108,7,S03,F,R,23,4
ChD_BB_v3,5,0,24,1,Correct,0.669179573352922,7,S03,F,R,23,1
ChD_BB_v3,5,0,25,1,Correct,0.509385165562126,7,S03,F,R,23,1
ChD_BB_v3,5,0,26,1,Correct,0.699143627484045,5,S03,F,R,23,1
ChD_BB_v3,5,0,27,1,Correct,0.539345465020815,6,S03,F,R,23,1
ChD_BB_v3,5,0,28,1,Correct,0.858940765946281,5,S03,F,R,23,1
ChD_BB_v3,5,0,29,1,Correct,0.968798269300823,7,S03,F,R,23,1
ChD_BB_v3,5,0,30,0,Correct,0.908872891709107,7,S03,F,R,23,4
ChD_BB_v3,5,0,31,1,Correct,0.629230800738769,6,S03,F,R,23,1
ChD_BB_v3,5,0,32,0,Correct,0.69913987281252,5,S03,F,R,23,4
ChD_BB_v3,5,0,33,0,Wrong,0.82897193314082,5,S03,F,R,23,3
ChD_BB_v3,5,0,34,0,Correct,0.629229776736865,5,S03,F,R,23,4
ChD_BB_v3,5,0,35,1,Correct,0.789025208529565,5,S03,F,R,23,1
ChD_BB_v3,5,0,36,1,Correct,0.908880742387337,6,S03,F,R,23,1
ChD_BB_v3,5,0,37,0,Correct,0.619244716919566,7,S03,F,R,23,4
ChD_BB_v3,5,0,38,0,Correct,0.779045268719965,5,S03,F,R,23,4
ChD_BB_v3,5,0,39,0,Correct,0.729108022950349,6,S03,F,R,23,4
ChD_BB_v3,5,0,40,0,Correct,0.699140896813515,7,S03,F,R,23,4
ChD_BB_v3,5,0,41,0,Wrong,0.998753448752723,6,S03,F,R,23,3
ChD_BB_v3,5,0,42,1,Wrong,0.998756520756615,7,S03,F,R,23,2
ChD_BB_v3,5,0,43,1,Correct,1.00874192190728,6,S03,F,R,23,1
ChD_BB_v3,5,0,44,1,Correct,0.759063543734701,5,S03,F,R,23,1
ChD_BB_v3,5,0,45,0,Correct,0.639226100571468,6,S03,F,R,23,4
ChD_BB_v3,5,0,46,1,Correct,0.699147382157389,6,S03,F,R,23,1
ChD_BB_v3,5,0,47,0,Wrong,1.03870119736497,5,S03,F,R,23,3
ChD_BB_v3,5,0,48,0,Correct,0.95880433480339,6,S03,F,R,23,4
ChD_BB_v3,5,0,49,1,Correct,0.669178890685289,6,S03,F,R,23,1
ChD_BB_v3,5,0,50,0,Correct,0.759067298407135,6,S03,F,R,23,4
ChD_BB_v3,5,0,51,1,Wrong,0.679168046508385,7,S03,F,R,23,2
ChD_BB_v3,5,0,52,0,Correct,0.998754131419446,5,S03,F,R,23,4
ChD_BB_v3,5,0,53,1,Correct,0.808997717500424,6,S03,F,R,23,1
ChD_BB_v3,5,0,54,0,Correct,0.689153447659955,7,S03,F,R,23,4
ChD_BB_v3,5,0,55,1,Wrong,0.898885101221276,6,S03,F,R,23,2
ChD_BB_v3,5,0,56,0,Correct,0.659200998879496,7,S03,F,R,23,4
ChD_BB_v3,5,0,57,1,Wrong,0.828975005145621,7,S03,F,R,23,2
ChD_BB_v3,5,0,58,1,Correct,0.709127663300351,7,S03,F,R,23,1
ChD_BB_v3,5,0,59,1,Correct,0.759112013142985,7,S03,F,R,23,1
ChD_BB_v3,5,0,60,0,Correct,0.729100513605481,6,S03,F,R,23,4
ChD_BB_v3,5,0,61,0,Correct,1.19849765315957,7,S03,F,R,23,4
ChD_BB_v3,5,0,62,1,Correct,0.759075490419637,6,S03,F,R,23,1
ChD_BB_v3,5,0,63,1,Correct,1.07865270065056,5,S03,F,R,23,1
ChD_BB_v3,5,0,64,0,Correct,0.858942131282456,7,S03,F,R,23,4
ChD_BB_v3,5,0,65,1,Wrong,0.719113064451012,5,S03,F,R,23,2
ChD_BB_v3,5,0,66,0,Correct,0.669178549351018,5,S03,F,R,23,4
ChD_BB_v3,5,0,67,0,Correct,0.888896286731542,5,S03,F,R,23,4
ChD_BB_v3,5,0,68,0,Wrong,0.838961430297277,7,S03,F,R,23,3
ChD_BB_v3,5,0,69,1,Correct,0.689153106325684,6,S03,F,R,23,1
ChD_BB_v3,5,0,70,0,Correct,0.569308836485216,5,S03,F,R,23,4
ChD_BB_v3,5,0,71,1,Wrong,0.818991310663587,7,S03,F,R,23,2
ChD_BB_v3,5,0,72,1,Correct,0.719135291029961,6,S03,F,R,23,1
ChD_BB_v3,6,7,1,1,Correct,0.71911511245391,6,S03,F,R,23,1
ChD_BB_v3,6,7,2,0,Correct,0.579300040311209,6,S03,F,R,23,4
ChD_BB_v3,6,7,3,1,Correct,0.579294578969239,5,S03,F,R,23,1
ChD_BB_v3,6,7,4,1,Correct,0.958808089475824,7,S03,F,R,23,1
ChD_BB_v3,6,7,5,1,Correct,0.639292939820953,6,S03,F,R,23,1
ChD_BB_v3,6,7,6,1,Wrong,0.589286465463774,5,S03,F,R,23,2
ChD_BB_v3,6,7,7,0,Correct,0.689154812995221,7,S03,F,R,23,4
ChD_BB_v3,6,7,8,0,Correct,0.599273573283972,5,S03,F,R,23,4
ChD_BB_v3,6,7,9,1,Correct,0.539356046371395,6,S03,F,R,23,1
ChD_BB_v3,6,7,10,0,Correct,0.609298569161874,7,S03,F,R,23,4
ChD_BB_v3,6,7,11,1,Wrong,0.579304477651276,5,S03,F,R,23,2
ChD_BB_v3,6,7,12,0,Correct,0.529359722536792,5,S03,F,R,23,4
ChD_BB_v3,6,7,13,1,Correct,0.639220639229497,6,S03,F,R,23,1
ChD_BB_v3,6,7,14,0,Correct,0.719114088452006,5,S03,F,R,23,4
ChD_BB_v3,6,7,15,1,Wrong,0.599274938619237,7,S03,F,R,23,2
ChD_BB_v3,6,7,16,1,Correct,0.639222004564763,5,S03,F,R,23,1
ChD_BB_v3,6,7,17,1,Wrong,0.599269477278176,6,S03,F,R,23,2
ChD_BB_v3,6,7,18,1,Correct,0.60926068110417,7,S03,F,R,23,1
ChD_BB_v3,6,7,19,0,Correct,0.818999161342726,5,S03,F,R,23,4
ChD_BB_v3,6,7,20,1,Correct,0.589290220137118,6,S03,F,R,23,1
ChD_BB_v3,6,7,21,1,Correct,0.858937352607209,7,S03,F,R,23,1
ChD_BB_v3,6,7,22,0,Correct,0.629232507408305,7,S03,F,R,23,4
ChD_BB_v3,6,7,23,1,Correct,0.61925120226344,6,S03,F,R,23,1
ChD_BB_v3,6,7,24,0,Correct,0.789026915199102,7,S03,F,R,23,4
ChD_BB_v3,6,7,25,0,Wrong,1.02871511354577,7,S03,F,R,23,3
ChD_BB_v3,6,7,26,0,Correct,0.709128004633712,5,S03,F,R,23,4
ChD_BB_v3,6,7,27,0,Correct,0.729112118956145,7,S03,F,R,23,4
ChD_BB_v3,6,7,28,1,Wrong,0.729102220274108,7,S03,F,R,23,2
ChD_BB_v3,6,7,29,0,Correct,0.74908087325457,7,S03,F,R,23,4
ChD_BB_v3,6,7,30,1,Correct,0.6392185912266,5,S03,F,R,23,1
ChD_BB_v3,6,7,31,1,Correct,0.779038100709367,6,S03,F,R,23,1
ChD_BB_v3,6,7,32,1,Correct,0.968793149292214,7,S03,F,R,23,1
ChD_BB_v3,6,7,33,0,Correct,0.898887149224174,7,S03,F,R,23,4
ChD_BB_v3,6,7,34,0,Correct,0.739097520106807,6,S03,F,R,23,4
ChD_BB_v3,6,7,35,1,Wrong,0.629232166074034,6,S03,F,R,23,2
ChD_BB_v3,6,7,36,0,Correct,0.629243771424699,5,S03,F,R,23,4
ChD_BB_v3,6,7,37,1,Correct,0.629232848741667,6,S03,F,R,23,1
ChD_BB_v3,6,7,38,1,Wrong,0.799016071022197,5,S03,F,R,23,2
ChD_BB_v3,6,7,39,1,Correct,0.70914302332345,5,S03,F,R,23,1
ChD_BB_v3,6,7,40,0,Correct,0.65919417220226,6,S03,F,R,23,4
ChD_BB_v3,6,7,41,0,Correct,0.65919417220226,6,S03,F,R,23,4
ChD_BB_v3,6,7,42,0,Wrong,0.789026915198192,5,S03,F,R,23,3
ChD_BB_v3,6,7,43,1,Correct,0.679169070510288,6,S03,F,R,23,1
ChD_BB_v3,6,7,44,0,Correct,0.669181280022458,7,S03,F,R,23,4
ChD_BB_v3,6,7,45,1,Wrong,0.848953999460355,6,S03,F,R,23,2
ChD_BB_v3,6,7,46,0,Correct,0.878913957584773,7,S03,F,R,23,4
ChD_BB_v3,6,7,47,1,Correct,0.759070711745298,6,S03,F,R,23,1
ChD_BB_v3,6,7,48,1,Correct,0.918866484872269,7,S03,F,R,23,1
ChD_BB_v3,6,7,49,0,Correct,0.669191178704496,6,S03,F,R,23,4
ChD_BB_v3,6,7,50,0,Correct,0.769053040892068,7,S03,F,R,23,4
ChD_BB_v3,6,7,51,0,Wrong,0.719126376471213,7,S03,F,R,23,3
ChD_BB_v3,6,7,52,0,Correct,0.799010609680227,7,S03,F,R,23,4
ChD_BB_v3,6,7,53,0,Correct,0.679170094511283,6,S03,F,R,23,4
ChD_BB_v3,6,7,54,0,Correct,0.569310884488114,5,S03,F,R,23,4
ChD_BB_v3,6,7,55,1,Correct,0.67916941184365,5,S03,F,R,23,1
ChD_BB_v3,6,7,56,1,Correct,0.809003520175756,7,S03,F,R,23,1
ChD_BB_v3,6,7,57,0,Correct,0.699144310152587,6,S03,F,R,23,4
ChD_BB_v3,6,7,58,1,Correct,0.619246423589102,5,S03,F,R,23,1
ChD_BB_v3,6,7,59,0,Correct,0.838967232973518,6,S03,F,R,23,4
ChD_BB_v3,6,7,60,1,Correct,0.88889560406391,7,S03,F,R,23,1
ChD_BB_v3,6,7,61,1,Correct,0.709128687301345,5,S03,F,R,23,1
ChD_BB_v3,6,7,62,1,Wrong,0.709137561981479,7,S03,F,R,23,2
ChD_BB_v3,6,7,63,1,Wrong,0.729107681616078,7,S03,F,R,23,2
ChD_BB_v3,6,7,64,0,Correct,0.659193489533718,5,S03,F,R,23,4
ChD_BB_v3,6,7,65,1,Correct,0.679170435845554,6,S03,F,R,23,1
ChD_BB_v3,6,7,66,1,Correct,0.749076094580232,5,S03,F,R,23,1
ChD_BB_v3,6,7,67,0,Correct,0.659191782865091,5,S03,F,R,23,4
ChD_BB_v3,6,7,68,0,Correct,0.579294920304419,5,S03,F,R,23,4
ChD_BB_v3,6,7,69,0,Correct,0.64921423239357,6,S03,F,R,23,4
ChD_BB_v3,6,7,70,0,Correct,0.619244375586204,6,S03,F,R,23,4
ChD_BB_v3,6,7,71,0,Correct,0.799021532364168,5,S03,F,R,23,4
ChD_BB_v3,6,7,72,0,Wrong,0.858939741944378,5,S03,F,R,23,3
ChD_BB_v3,1,0,1,1,Correct,0.846753085395733,6,S04,M,R,18,1
ChD_BB_v3,1,0,2,1,Correct,0.757100333857807,6,S04,M,R,18,1
ChD_BB_v3,1,0,3,1,Wrong,0.577796878781214,5,S04,M,R,18,2
ChD_BB_v3,1,0,4,0,Correct,0.627603394080268,6,S04,M,R,18,4
ChD_BB_v3,1,0,5,0,Correct,0.906519197088699,6,S04,M,R,18,4
ChD_BB_v3,1,0,6,1,Wrong,1.07586578643645,6,S04,M,R,18,2
ChD_BB_v3,1,0,7,0,Correct,0.627605100745939,5,S04,M,R,18,4
ChD_BB_v3,1,0,8,0,Correct,0.617679979000854,5,S04,M,R,18,4
ChD_BB_v3,1,0,9,1,Correct,0.627606807411837,6,S04,M,R,18,1
ChD_BB_v3,1,0,10,1,Correct,0.767062319583886,7,S04,M,R,18,1
ChD_BB_v3,1,0,11,1,Wrong,0.60768215329341,7,S04,M,R,18,2
ChD_BB_v3,1,0,12,1,Wrong,0.91648562014575,7,S04,M,R,18,2
ChD_BB_v3,1,0,13,1,Wrong,0.737178410404454,7,S04,M,R,18,2
ChD_BB_v3,1,0,14,0,Correct,0.846752061396103,6,S04,M,R,18,4
ChD_BB_v3,1,0,15,1,Wrong,0.866675691515127,7,S04,M,R,18,2
ChD_BB_v3,1,0,16,0,Correct,1.25516548684834,6,S04,M,R,18,4
ChD_BB_v3,1,0,17,0,Correct,0.677411616044992,6,S04,M,R,18,4
ChD_BB_v3,1,0,18,1,Correct,0.597721874232775,6,S04,M,R,18,1
ChD_BB_v3,1,0,19,1,Wrong,0.956326053720659,7,S04,M,R,18,2
ChD_BB_v3,1,0,20,0,Correct,0.697334222164841,5,S04,M,R,18,4
ChD_BB_v3,1,0,21,0,Correct,0.796945204763915,7,S04,M,R,18,4
ChD_BB_v3,1,0,22,1,Correct,1.16555506062224,7,S04,M,R,18,1
ChD_BB_v3,1,0,23,1,Wrong,0.926443851207125,7,S04,M,R,18,2
ChD_BB_v3,1,0,24,1,Correct,0.926443851207125,6,S04,M,R,18,1
ChD_BB_v3,1,0,25,1,Correct,0.607691027955354,5,S04,M,R,18,1
ChD_BB_v3,1,0,26,0,Correct,1.40458639807827,5,S04,M,R,18,4
ChD_BB_v3,1,0,27,0,Correct,0.876635629242401,6,S04,M,R,18,4
ChD_BB_v3,1,0,28,1,Wrong,1.02605585780583,7,S04,M,R,18,2
ChD_BB_v3,1,0,29,1,Wrong,1.00613495835211,7,S04,M,R,18,2
ChD_BB_v3,1,0,30,1,Wrong,0.647527365532653,5,S04,M,R,18,2
ChD_BB_v3,1,0,31,0,Correct,0.617642432353591,6,S04,M,R,18,4
ChD_BB_v3,1,0,32,0,Correct,0.707293818558753,7,S04,M,R,18,4
ChD_BB_v3,1,0,33,0,Correct,0.667448264986376,6,S04,M,R,18,4
ChD_BB_v3,1,0,34,0,Correct,0.627631724732453,6,S04,M,R,18,4
ChD_BB_v3,1,0,35,0,Correct,0.627639916728356,6,S04,M,R,18,4
ChD_BB_v3,1,0,36,1,Correct,1.50419840467674,5,S04,M,R,18,1
ChD_BB_v3,1,0,37,0,Correct,0.637565721139481,5,S04,M,R,18,4
ChD_BB_v3,1,0,38,0,Correct,0.816870882881972,6,S04,M,R,18,4
ChD_BB_v3,1,0,39,1,Correct,0.647526682866157,5,S04,M,R,18,1
ChD_BB_v3,1,0,40,1,Wrong,0.737178069071319,7,S04,M,R,18,2
ChD_BB_v3,1,0,41,1,Wrong,1.13563019146375,5,S04,M,R,18,2
ChD_BB_v3,1,0,42,0,Correct,0.617643456352994,6,S04,M,R,18,4
ChD_BB_v3,1,0,43,0,Correct,1.5241213521295,5,S04,M,R,18,4
ChD_BB_v3,1,0,44,0,Correct,1.01611298673663,7,S04,M,R,18,4
ChD_BB_v3,1,0,45,0,Correct,1.31493364654034,5,S04,M,R,18,4
ChD_BB_v3,1,0,46,1,Wrong,1.11571304667473,6,S04,M,R,18,2
ChD_BB_v3,1,0,47,0,Correct,0.816869517549208,5,S04,M,R,18,4
ChD_BB_v3,1,0,48,1,Correct,0.727218814010541,7,S04,M,R,18,1
ChD_BB_v3,1,0,49,1,Wrong,2.08195364081263,7,S04,M,R,18,2
ChD_BB_v3,1,0,50,1,Wrong,1.30497370881307,7,S04,M,R,18,2
ChD_BB_v3,1,0,51,1,Wrong,0.846752744062371,7,S04,M,R,18,2
ChD_BB_v3,1,0,52,1,Correct,0.647526341533023,5,S04,M,R,18,1
ChD_BB_v3,1,0,53,0,Wrong,0.637567086472245,7,S04,M,R,18,3
ChD_BB_v3,1,0,54,0,Correct,0.826830479276111,7,S04,M,R,18,4
ChD_BB_v3,1,0,55,1,Correct,0.986210986899721,5,S04,M,R,18,1
ChD_BB_v3,1,0,56,0,Correct,0.886603417631989,7,S04,M,R,18,4
ChD_BB_v3,1,0,57,1,Correct,1.49423983228223,6,S04,M,R,18,1
ChD_BB_v3,1,0,58,0,Correct,1.5340833378558,7,S04,M,R,18,4
ChD_BB_v3,1,0,59,0,Correct,0.876651671900845,6,S04,M,R,18,4
ChD_BB_v3,1,0,60,0,Correct,0.717255121618564,6,S04,M,R,18,4
ChD_BB_v3,1,0,61,1,Correct,0.647527365532653,6,S04,M,R,18,1
ChD_BB_v3,1,0,62,0,Correct,1.79308233740812,6,S04,M,R,18,4
ChD_BB_v3,1,0,63,1,Correct,0.647530096197727,5,S04,M,R,18,1
ChD_BB_v3,1,0,64,0,Correct,2.35090984742692,5,S04,M,R,18,4
ChD_BB_v3,1,0,65,0,Correct,0.91648323081381,5,S04,M,R,18,4
ChD_BB_v3,1,0,66,1,Correct,0.577797220114348,7,S04,M,R,18,1
ChD_BB_v3,1,0,67,1,Wrong,0.846757181393571,5,S04,M,R,18,2
ChD_BB_v3,1,0,68,0,Correct,1.2750911649664,5,S04,M,R,18,4
ChD_BB_v3,1,0,69,0,Correct,0.677419808040895,7,S04,M,R,18,4
ChD_BB_v3,1,0,70,0,Correct,0.647535557528329,5,S04,M,R,18,4
ChD_BB_v3,1,0,71,1,Wrong,0.896569840689494,5,S04,M,R,18,2
ChD_BB_v3,1,0,72,0,Correct,0.577797902780617,5,S04,M,R,18,4
ChD_BB_v3,2,0,1,0,Correct,0.72721949667681,5,S04,M,R,18,4
ChD_BB_v3,2,0,2,0,Correct,0.508069464028438,6,S04,M,R,18,4
ChD_BB_v3,2,0,3,0,Correct,0.428381770215026,5,S04,M,R,18,4
ChD_BB_v3,2,0,4,0,Correct,0.448300963003305,6,S04,M,R,18,4
ChD_BB_v3,2,0,5,0,Correct,0.458264314061921,7,S04,M,R,18,4
ChD_BB_v3,2,0,6,0,Correct,0.468232443784871,5,S04,M,R,18,4
ChD_BB_v3,2,0,7,0,Correct,0.428385183546368,5,S04,M,R,18,4
ChD_BB_v3,2,0,8,0,Correct,0.438339318610133,5,S04,M,R,18,4
ChD_BB_v3,2,0,9,1,Correct,0.747141420130163,5,S04,M,R,18,1
ChD_BB_v3,2,0,10,1,Wrong,1.18543875476183,7,S04,M,R,18,2
ChD_BB_v3,2,0,11,0,Correct,0.458261583396848,7,S04,M,R,18,4
ChD_BB_v3,2,0,12,1,Correct,1.17547540370322,7,S04,M,R,18,1
ChD_BB_v3,2,0,13,0,Correct,0.577798926780019,7,S04,M,R,18,4
ChD_BB_v3,2,0,14,1,Correct,0.627616706073184,5,S04,M,R,18,1
ChD_BB_v3,2,0,15,1,Wrong,0.727216766011736,6,S04,M,R,18,2
ChD_BB_v3,2,0,16,0,Correct,0.647529072198324,5,S04,M,R,18,4
ChD_BB_v3,2,0,17,1,Correct,1.07586237310511,5,S04,M,R,18,1
ChD_BB_v3,2,0,18,0,Correct,0.528025862130846,5,S04,M,R,18,4
ChD_BB_v3,2,0,19,1,Correct,0.78700165102822,6,S04,M,R,18,1
ChD_BB_v3,2,0,20,0,Correct,0.856713364455914,5,S04,M,R,18,4
ChD_BB_v3,2,0,21,0,Correct,0.906525341085569,6,S04,M,R,18,4
ChD_BB_v3,2,0,22,1,Correct,0.697332515498942,6,S04,M,R,18,1
ChD_BB_v3,2,0,23,1,Wrong,0.956329467052456,7,S04,M,R,18,2
ChD_BB_v3,2,0,24,0,Correct,0.777030107973928,7,S04,M,R,18,4
ChD_BB_v3,2,0,25,1,Correct,0.677411616044765,6,S04,M,R,18,1
ChD_BB_v3,2,0,26,0,Correct,1.09578770988981,5,S04,M,R,18,4
ChD_BB_v3,2,0,27,1,Correct,0.826834575273722,6,S04,M,R,18,1
ChD_BB_v3,2,0,28,0,Correct,1.07586544510355,5,S04,M,R,18,4
ChD_BB_v3,2,0,29,1,Correct,0.707306789218762,6,S04,M,R,18,1
ChD_BB_v3,2,0,30,1,Correct,0.647526682866157,7,S04,M,R,18,1
ChD_BB_v3,2,0,31,1,Correct,0.896558576695156,6,S04,M,R,18,1
ChD_BB_v3,2,0,32,1,Correct,0.70729518389129,6,S04,M,R,18,1
ChD_BB_v3,2,0,33,0,Correct,0.73717977573699,6,S04,M,R,18,4
ChD_BB_v3,2,0,34,0,Wrong,1.63369636845414,7,S04,M,R,18,3
ChD_BB_v3,2,0,35,0,Correct,0.926442827207495,7,S04,M,R,18,4
ChD_BB_v3,2,0,36,1,Wrong,0.747140396130533,5,S04,M,R,18,2
ChD_BB_v3,2,0,37,0,Correct,0.717258876283267,6,S04,M,R,18,4
ChD_BB_v3,2,0,38,1,Correct,0.787000285695683,6,S04,M,R,18,1
ChD_BB_v3,2,0,39,1,Correct,0.687374284437567,5,S04,M,R,18,1
ChD_BB_v3,2,0,40,0,Wrong,0.946366457326747,6,S04,M,R,18,3
ChD_BB_v3,2,0,41,1,Correct,0.597721532899641,7,S04,M,R,18,1
ChD_BB_v3,2,0,42,0,Correct,0.936405495599843,6,S04,M,R,18,4
ChD_BB_v3,2,0,43,1,Correct,0.697332515498942,5,S04,M,R,18,1
ChD_BB_v3,2,0,44,1,Wrong,0.707300986555254,7,S04,M,R,18,2
ChD_BB_v3,2,0,45,0,Correct,0.687372577771669,7,S04,M,R,18,4
ChD_BB_v3,2,0,46,0,Correct,0.94637021199145,6,S04,M,R,18,4
ChD_BB_v3,2,0,47,0,Correct,0.508070146694251,7,S04,M,R,18,4
ChD_BB_v3,2,0,48,1,Correct,1.70342958586997,7,S04,M,R,18,1
ChD_BB_v3,2,0,49,0,Correct,0.966288380780099,7,S04,M,R,18,4
ChD_BB_v3,2,0,50,1,Correct,0.647528048199149,5,S04,M,R,18,1
ChD_BB_v3,2,0,51,0,Correct,0.786985949703137,7,S04,M,R,18,4
ChD_BB_v3,2,0,52,0,Correct,0.6574873032597,6,S04,M,R,18,4
ChD_BB_v3,2,0,53,0,Correct,0.498108502301989,6,S04,M,R,18,4
ChD_BB_v3,2,0,54,1,Wrong,0.607682835959451,7,S04,M,R,18,2
ChD_BB_v3,2,0,55,0,Correct,0.577797220114576,5,S04,M,R,18,4
ChD_BB_v3,2,0,56,1,Correct,0.537952690541601,7,S04,M,R,18,1
ChD_BB_v3,2,0,57,0,Correct,0.488146516575455,5,S04,M,R,18,4
ChD_BB_v3,2,0,58,1,Correct,0.747139372130903,6,S04,M,R,18,1
ChD_BB_v3,2,0,59,0,Correct,0.488147881908446,5,S04,M,R,18,4
ChD_BB_v3,2,0,60,1,Wrong,0.747153025457635,7,S04,M,R,18,2
ChD_BB_v3,2,0,61,0,Correct,0.617653013681206,6,S04,M,R,18,4
ChD_BB_v3,2,0,62,1,Correct,1.41454770113785,6,S04,M,R,18,1
ChD_BB_v3,2,0,63,1,Correct,0.796947252762948,7,S04,M,R,18,1
ChD_BB_v3,2,0,64,1,Wrong,1.06590243537784,6,S04,M,R,18,2
ChD_BB_v3,2,0,65,1,Correct,0.577800974778825,5,S04,M,R,18,1
ChD_BB_v3,2,0,66,0,Correct,0.647528730865417,5,S04,M,R,18,4
ChD_BB_v3,2,0,67,1,Correct,0.876636653241803,7,S04,M,R,18,1
ChD_BB_v3,2,0,68,1,Wrong,1.22528499100071,7,S04,M,R,18,2
ChD_BB_v3,2,0,69,0,Correct,0.906521245087504,7,S04,M,R,18,4
ChD_BB_v3,2,0,70,1,Correct,0.747141761463524,5,S04,M,R,18,1
ChD_BB_v3,2,0,71,1,Wrong,1.72334673065944,5,S04,M,R,18,2
ChD_BB_v3,2,0,72,1,Correct,0.826841743269767,6,S04,M,R,18,1
ChD_BB_v3,3,7,1,1,Correct,0.687373943104205,7,S04,M,R,18,1
ChD_BB_v3,3,7,2,0,Correct,0.547919796264921,6,S04,M,R,18,4
ChD_BB_v3,3,7,3,0,Correct,0.478185554849006,6,S04,M,R,18,4
ChD_BB_v3,3,7,4,1,Correct,0.697334904831109,7,S04,M,R,18,1
ChD_BB_v3,3,7,5,0,Correct,0.617642432353364,6,S04,M,R,18,4
ChD_BB_v3,3,7,6,1,Wrong,0.786990728367471,7,S04,M,R,18,2
ChD_BB_v3,3,7,7,1,Correct,0.856721556451589,7,S04,M,R,18,1
ChD_BB_v3,3,7,8,0,Correct,0.856720532452414,7,S04,M,R,18,4
ChD_BB_v3,3,7,9,0,Correct,0.76746739069614,5,S04,M,R,18,4
ChD_BB_v3,3,7,10,1,Wrong,1.06591404070485,5,S04,M,R,18,2
ChD_BB_v3,3,7,11,0,Correct,0.587763984504534,7,S04,M,R,18,4
ChD_BB_v3,3,7,12,1,Correct,0.518028719089443,5,S04,M,R,18,1
ChD_BB_v3,3,7,13,1,Wrong,0.687372577771669,6,S04,M,R,18,2
ChD_BB_v3,3,7,14,1,Wrong,0.70729415989166,7,S04,M,R,18,2
ChD_BB_v3,3,7,15,0,Correct,0.478186237515274,6,S04,M,R,18,4
ChD_BB_v3,3,7,16,1,Correct,0.976251390505809,6,S04,M,R,18,1
ChD_BB_v3,3,7,17,1,Correct,1.7731624619538,6,S04,M,R,18,1
ChD_BB_v3,3,7,18,1,Correct,0.916484254813213,6,S04,M,R,18,1
ChD_BB_v3,3,7,19,1,Correct,0.567835575721404,6,S04,M,R,18,1
ChD_BB_v3,3,7,20,0,Correct,0.737178410404454,7,S04,M,R,18,4
ChD_BB_v3,3,7,21,1,Correct,0.707297914556364,5,S04,M,R,18,1
ChD_BB_v3,3,7,22,0,Correct,0.567837282387302,7,S04,M,R,18,4
ChD_BB_v3,3,7,23,0,Correct,1.40458742207767,7,S04,M,R,18,4
ChD_BB_v3,3,7,24,0,Correct,0.687392716428178,7,S04,M,R,18,4
ChD_BB_v3,3,7,25,1,Correct,0.677414346710293,6,S04,M,R,18,1
ChD_BB_v3,3,7,26,0,Correct,0.677412981377756,6,S04,M,R,18,4
ChD_BB_v3,3,7,27,0,Correct,0.557878027326296,5,S04,M,R,18,4
ChD_BB_v3,3,7,28,1,Correct,1.31493569453937,6,S04,M,R,18,1
ChD_BB_v3,3,7,29,0,Correct,0.647531461530491,6,S04,M,R,18,4
ChD_BB_v3,3,7,30,0,Correct,0.836791782335467,7,S04,M,R,18,4
ChD_BB_v3,3,7,31,1,Wrong,0.567836258387672,7,S04,M,R,18,2
ChD_BB_v3,3,7,32,0,Correct,1.18543636542967,5,S04,M,R,18,4
ChD_BB_v3,3,7,33,0,Correct,0.458263290062291,5,S04,M,R,18,4
ChD_BB_v3,3,7,34,0,Correct,0.478185554849006,5,S04,M,R,18,4
ChD_BB_v3,3,7,35,1,Correct,2.00226492300004,7,S04,M,R,18,1
ChD_BB_v3,3,7,36,0,Correct,1.37470146489943,5,S04,M,R,18,4
ChD_BB_v3,3,7,37,1,Wrong,0.866677739514159,6,S04,M,R,18,2
ChD_BB_v3,3,7,38,0,Correct,0.737178410404454,6,S04,M,R,18,4
ChD_BB_v3,3,7,39,1,Correct,0.657489009925598,7,S04,M,R,18,1
ChD_BB_v3,3,7,40,1,Wrong,0.85671677778771,6,S04,M,R,18,2
ChD_BB_v3,3,7,41,1,Wrong,1.95246318636487,5,S04,M,R,18,2
ChD_BB_v3,3,7,42,0,Correct,0.438345121273642,5,S04,M,R,18,4
ChD_BB_v3,3,7,43,1,Correct,0.667449630318686,6,S04,M,R,18,1
ChD_BB_v3,3,7,44,1,Correct,0.647529754864593,7,S04,M,R,18,1
ChD_BB_v3,3,7,45,1,Correct,0.537956786539212,6,S04,M,R,18,1
ChD_BB_v3,3,7,46,0,Correct,0.56783591705431,5,S04,M,R,18,4
ChD_BB_v3,3,7,47,0,Correct,0.527995824812308,5,S04,M,R,18,4
ChD_BB_v3,3,7,48,1,Correct,0.547917065599847,5,S04,M,R,18,1
ChD_BB_v3,3,7,49,1,Correct,0.627604076746536,5,S04,M,R,18,1
ChD_BB_v3,3,7,50,0,Correct,0.478186237515274,6,S04,M,R,18,4
ChD_BB_v3,3,7,51,1,Wrong,1.22528294300145,7,S04,M,R,18,2
ChD_BB_v3,3,7,52,0,Correct,0.468224593122102,5,S04,M,R,18,4
ChD_BB_v3,3,7,53,1,Correct,0.926442485874588,7,S04,M,R,18,1
ChD_BB_v3,3,7,54,0,Correct,0.53795337320787,5,S04,M,R,18,4
ChD_BB_v3,3,7,55,0,Correct,0.846754109394908,5,S04,M,R,18,4
ChD_BB_v3,3,7,56,1,Correct,0.607687273290423,5,S04,M,R,18,1
ChD_BB_v3,3,7,57,0,Correct,0.627616706073638,5,S04,M,R,18,4
ChD_BB_v3,3,7,58,0,Correct,0.508068098695901,5,S04,M,R,18,4
ChD_BB_v3,3,7,59,1,Correct,0.5379543972075,6,S04,M,R,18,1
ChD_BB_v3,3,7,60,1,Correct,0.617644821685985,7,S04,M,R,18,1
ChD_BB_v3,3,7,61,1,Wrong,1.52412237612913,5,S04,M,R,18,2
ChD_BB_v3,3,7,62,0,Correct,2.38079375660658,5,S04,M,R,18,4
ChD_BB_v3,3,7,63,0,Correct,1.06590072871194,7,S04,M,R,18,4
ChD_BB_v3,3,7,64,0,Correct,0.448301645669574,7,S04,M,R,18,4
ChD_BB_v3,3,7,65,1,Wrong,0.468223910455833,6,S04,M,R,18,2
ChD_BB_v3,3,7,66,0,Correct,0.567836258387672,6,S04,M,R,18,4
ChD_BB_v3,3,7,67,0,Correct,0.458270458058792,7,S04,M,R,18,4
ChD_BB_v3,3,7,68,0,Correct,0.378572524250444,6,S04,M,R,18,4
ChD_BB_v3,3,7,69,0,Correct,0.697334563497748,7,S04,M,R,18,4
ChD_BB_v3,3,7,70,1,Correct,0.488147199241723,5,S04,M,R,18,1
ChD_BB_v3,3,7,71,1,Correct,0.478192381512144,7,S04,M,R,18,1
ChD_BB_v3,3,7,72,1,Correct,0.498145707615663,6,S04,M,R,18,1
ChD_BB_v3,4,7,1,0,Correct,0.627605783412434,6,S04,M,R,18,4
ChD_BB_v3,4,7,2,0,Correct,0.428381087548757,6,S04,M,R,18,4
ChD_BB_v3,4,7,3,1,Correct,0.687372236438307,7,S04,M,R,18,1
ChD_BB_v3,4,7,4,0,Correct,0.557878368659658,7,S04,M,R,18,4
ChD_BB_v3,4,7,5,1,Correct,0.896558576695156,6,S04,M,R,18,1
ChD_BB_v3,4,7,6,0,Correct,0.697333198165211,6,S04,M,R,18,4
ChD_BB_v3,4,7,7,1,Correct,0.587764325837441,7,S04,M,R,18,1
ChD_BB_v3,4,7,8,0,Correct,1.19539869248865,7,S04,M,R,18,4
ChD_BB_v3,4,7,9,1,Correct,0.84676469072275,5,S04,M,R,18,1
ChD_BB_v3,4,7,10,1,Correct,0.836796560999801,6,S04,M,R,18,1
ChD_BB_v3,4,7,11,0,Correct,0.577800974778825,6,S04,M,R,18,4
ChD_BB_v3,4,7,12,1,Correct,0.63757015847068,6,S04,M,R,18,1
ChD_BB_v3,4,7,13,0,Correct,0.418416029824243,5,S04,M,R,18,4
ChD_BB_v3,4,7,14,1,Wrong,1.03604105418663,6,S04,M,R,18,2
ChD_BB_v3,4,7,15,0,Correct,0.637565038472985,6,S04,M,R,18,4
ChD_BB_v3,4,7,16,0,Correct,0.498106454302729,7,S04,M,R,18,4
ChD_BB_v3,4,7,17,0,Correct,0.438341366609393,5,S04,M,R,18,4
ChD_BB_v3,4,7,18,1,Wrong,0.358651283463814,7,S04,M,R,18,2
ChD_BB_v3,4,7,19,1,Correct,0.567838647719839,5,S04,M,R,18,1
ChD_BB_v3,4,7,20,0,Correct,0.896560966027323,5,S04,M,R,18,4
ChD_BB_v3,4,7,21,0,Correct,0.667449288985779,6,S04,M,R,18,4
ChD_BB_v3,4,7,22,1,Correct,0.537952690541601,5,S04,M,R,18,1
ChD_BB_v3,4,7,23,1,Wrong,0.806920161150231,5,S04,M,R,18,2
ChD_BB_v3,4,7,24,0,Correct,0.438343755941105,5,S04,M,R,18,4
ChD_BB_v3,4,7,25,1,Correct,0.488145492575825,7,S04,M,R,18,1
ChD_BB_v3,4,7,26,0,Correct,0.518035887085489,5,S04,M,R,18,4
ChD_BB_v3,4,7,27,1,Correct,0.717257169617824,6,S04,M,R,18,1
ChD_BB_v3,4,7,28,1,Wrong,0.687372577771669,5,S04,M,R,18,2
ChD_BB_v3,4,7,29,0,Correct,0.537962930536082,7,S04,M,R,18,4
ChD_BB_v3,4,7,30,1,Wrong,0.488144809909556,6,S04,M,R,18,2
ChD_BB_v3,4,7,31,1,Correct,0.587760571173192,7,S04,M,R,18,1
ChD_BB_v3,4,7,32,1,Correct,0.816868493549578,5,S04,M,R,18,1
ChD_BB_v3,4,7,33,0,Correct,0.547913652268051,6,S04,M,R,18,4
ChD_BB_v3,4,7,34,0,Correct,1.02605585780606,6,S04,M,R,18,4
ChD_BB_v3,4,7,35,1,Correct,0.647527365532426,6,S04,M,R,18,1
ChD_BB_v3,4,7,36,0,Correct,0.657496519255005,5,S04,M,R,18,4
ChD_BB_v3,4,7,37,0,Correct,0.687373260437937,7,S04,M,R,18,4
ChD_BB_v3,4,7,38,0,Correct,0.448301304336212,7,S04,M,R,18,4
ChD_BB_v3,4,7,39,0,Correct,0.358648894131647,5,S04,M,R,18,4
ChD_BB_v3,4,7,40,1,Correct,0.717254780285657,6,S04,M,R,18,1
ChD_BB_v3,4,7,41,0,Correct,0.587758864507293,7,S04,M,R,18,4
ChD_BB_v3,4,7,42,1,Wrong,1.0459883625868,6,S04,M,R,18,2
ChD_BB_v3,4,7,43,1,Correct,0.747139030797996,5,S04,M,R,18,1
ChD_BB_v3,4,7,44,1,Correct,0.786995507031349,5,S04,M,R,18,1
ChD_BB_v3,4,7,45,1,Correct,0.53795234920824,6,S04,M,R,18,1
ChD_BB_v3,4,7,46,1,Correct,0.557875296660768,5,S04,M,R,18,1
ChD_BB_v3,4,7,47,1,Wrong,0.697335928830739,7,S04,M,R,18,2
ChD_BB_v3,4,7,48,1,Wrong,0.687372236438762,7,S04,M,R,18,2
ChD_BB_v3,4,7,49,1,Correct,0.786985267036869,5,S04,M,R,18,1
ChD_BB_v3,4,7,50,0,Correct,0.557874955327861,7,S04,M,R,18,4
ChD_BB_v3,4,7,51,0,Correct,0.587762619171997,7,S04,M,R,18,4
ChD_BB_v3,4,7,52,1,Correct,0.637567769138514,7,S04,M,R,18,1
ChD_BB_v3,4,7,53,0,Correct,0.567836258387672,5,S04,M,R,18,4
ChD_BB_v3,4,7,54,0,Correct,0.727217790010911,7,S04,M,R,18,4
ChD_BB_v3,4,7,55,0,Correct,0.518044420414526,6,S04,M,R,18,4
ChD_BB_v3,4,7,56,0,Correct,0.508069464028438,7,S04,M,R,18,4
ChD_BB_v3,4,7,57,0,Correct,0.48814549257628,6,S04,M,R,18,4
ChD_BB_v3,4,7,58,1,Correct,0.617642432353364,5,S04,M,R,18,1
ChD_BB_v3,4,7,59,0,Correct,0.996173313958707,6,S04,M,R,18,4
ChD_BB_v3,4,7,60,0,Correct,0.757142659169631,7,S04,M,R,18,4
ChD_BB_v3,4,7,61,1,Correct,0.737198207727602,6,S04,M,R,18,1
ChD_BB_v3,4,7,62,1,Correct,1.12567127773588,5,S04,M,R,18,1
ChD_BB_v3,4,7,63,1,Correct,0.697335246164016,5,S04,M,R,18,1
ChD_BB_v3,4,7,64,1,Wrong,1.12567059507006,5,S04,M,R,18,2
ChD_BB_v3,4,7,65,0,Correct,1.11571031600943,5,S04,M,R,18,4
ChD_BB_v3,4,7,66,0,Correct,0.99617502062506,7,S04,M,R,18,4
ChD_BB_v3,4,7,67,0,Correct,0.567845474382977,6,S04,M,R,18,4
ChD_BB_v3,4,7,68,1,Correct,0.567835917054765,7,S04,M,R,18,1
ChD_BB_v3,4,7,69,1,Correct,0.468226982454723,5,S04,M,R,18,1
ChD_BB_v3,4,7,70,0,Correct,0.508069464028438,7,S04,M,R,18,4
ChD_BB_v3,4,7,71,1,Correct,0.498107478302359,6,S04,M,R,18,1
ChD_BB_v3,4,7,72,0,Correct,0.597720850233372,7,S04,M,R,18,4
ChD_BB_v3,5,4,1,0,Correct,0.458261583396393,6,S04,M,R,18,4
ChD_BB_v3,5,4,2,1,Correct,0.43834068394267,6,S04,M,R,18,1
ChD_BB_v3,5,4,3,0,Correct,0.527994118146864,5,S04,M,R,18,4
ChD_BB_v3,5,4,4,1,Wrong,0.338725605345758,6,S04,M,R,18,2
ChD_BB_v3,5,4,5,0,Correct,0.38853280331108,7,S04,M,R,18,4
ChD_BB_v3,5,4,6,1,Correct,0.488150271240613,5,S04,M,R,18,1
ChD_BB_v3,5,4,7,0,Correct,0.478185896181913,7,S04,M,R,18,4
ChD_BB_v3,5,4,8,0,Correct,0.438350923937605,7,S04,M,R,18,4
ChD_BB_v3,5,4,9,0,Correct,0.388537923308775,7,S04,M,R,18,4
ChD_BB_v3,5,4,10,0,Correct,0.418417395157235,7,S04,M,R,18,4
ChD_BB_v3,5,4,11,1,Wrong,0.757100333857807,6,S04,M,R,18,2
ChD_BB_v3,5,4,12,0,Correct,0.438338635943865,6,S04,M,R,18,4
ChD_BB_v3,5,4,13,0,Correct,0.468224251789195,7,S04,M,R,18,4
ChD_BB_v3,5,4,14,1,Correct,0.478187944180718,5,S04,M,R,18,1
ChD_BB_v3,5,4,15,1,Correct,0.687372577771669,5,S04,M,R,18,1
ChD_BB_v3,5,4,16,0,Correct,0.51803418041959,5,S04,M,R,18,4
ChD_BB_v3,5,4,17,0,Correct,0.378570817585,5,S04,M,R,18,4
ChD_BB_v3,5,4,18,0,Correct,0.518030084421525,5,S04,M,R,18,4
ChD_BB_v3,5,4,19,0,Correct,0.448310178998156,5,S04,M,R,18,4
ChD_BB_v3,5,4,20,0,Correct,0.408455068097794,5,S04,M,R,18,4
ChD_BB_v3,5,4,21,0,Correct,0.498106112969822,6,S04,M,R,18,4
ChD_BB_v3,5,4,22,1,Correct,0.537957810538842,7,S04,M,R,18,1
ChD_BB_v3,5,4,23,0,Correct,0.448304376335102,5,S04,M,R,18,4
ChD_BB_v3,5,4,24,1,Wrong,0.358647528798656,7,S04,M,R,18,2
ChD_BB_v3,5,4,25,0,Correct,0.777023622643696,7,S04,M,R,18,4
ChD_BB_v3,5,4,26,1,Correct,0.717255804284832,6,S04,M,R,18,1
ChD_BB_v3,5,4,27,0,Correct,0.567838647719839,7,S04,M,R,18,4
ChD_BB_v3,5,4,28,0,Correct,0.567843426384172,5,S04,M,R,18,4
ChD_BB_v3,5,4,29,1,Correct,0.557874613994954,6,S04,M,R,18,1
ChD_BB_v3,5,4,30,1,Correct,0.607681470626915,5,S04,M,R,18,1
ChD_BB_v3,5,4,31,1,Correct,0.846753768062001,7,S04,M,R,18,1
ChD_BB_v3,5,4,32,0,Correct,0.438339318610588,5,S04,M,R,18,4
ChD_BB_v3,5,4,33,1,Correct,0.58776022983983,6,S04,M,R,18,1
ChD_BB_v3,5,4,34,1,Wrong,0.757102381856612,6,S04,M,R,18,2
ChD_BB_v3,5,4,35,0,Correct,0.637565379806347,7,S04,M,R,18,4
ChD_BB_v3,5,4,36,1,Wrong,1.17551158501772,7,S04,M,R,18,2
ChD_BB_v3,5,4,37,0,Correct,0.647527024199064,7,S04,M,R,18,4
ChD_BB_v3,5,4,38,1,Correct,0.657498567253811,5,S04,M,R,18,1
ChD_BB_v3,5,4,39,1,Correct,0.637570841136949,5,S04,M,R,18,1
ChD_BB_v3,5,4,40,1,Correct,0.537955079873313,5,S04,M,R,18,1
ChD_BB_v3,5,4,41,1,Correct,0.557874613994954,7,S04,M,R,18,1
ChD_BB_v3,5,4,42,0,Correct,0.757101016524075,7,S04,M,R,18,4
ChD_BB_v3,5,4,43,0,Correct,0.537953031874508,6,S04,M,R,18,4
ChD_BB_v3,5,4,44,1,Correct,0.498112256966692,5,S04,M,R,18,1
ChD_BB_v3,5,4,45,1,Correct,0.627604759412804,5,S04,M,R,18,1
ChD_BB_v3,5,4,46,1,Correct,0.577797220114576,7,S04,M,R,18,1
ChD_BB_v3,5,4,47,1,Correct,0.836792806335097,6,S04,M,R,18,1
ChD_BB_v3,5,4,48,1,Wrong,1.0758784157631,6,S04,M,R,18,2
ChD_BB_v3,5,4,49,0,Correct,0.557878368659203,5,S04,M,R,18,4
ChD_BB_v3,5,4,50,0,Correct,0.717255462951925,6,S04,M,R,18,4
ChD_BB_v3,5,4,51,0,Correct,0.627612268742212,7,S04,M,R,18,4
ChD_BB_v3,5,4,52,1,Correct,1.69346794147725,7,S04,M,R,18,1
ChD_BB_v3,5,4,53,0,Correct,0.478191016179153,6,S04,M,R,18,4
ChD_BB_v3,5,4,54,1,Wrong,0.408458481429136,5,S04,M,R,18,2
ChD_BB_v3,5,4,55,1,Wrong,0.737180117070352,5,S04,M,R,18,2
ChD_BB_v3,5,4,56,0,Correct,0.767064026249329,7,S04,M,R,18,4
ChD_BB_v3,5,4,57,0,Correct,0.468223227789565,7,S04,M,R,18,4
ChD_BB_v3,5,4,58,0,Correct,0.508069122695076,6,S04,M,R,18,4
ChD_BB_v3,5,4,59,0,Correct,0.38853177931145,5,S04,M,R,18,4
ChD_BB_v3,5,4,60,0,Correct,0.388534509976978,6,S04,M,R,18,4
ChD_BB_v3,5,4,61,1,Correct,0.597721874233002,5,S04,M,R,18,1
ChD_BB_v3,5,4,62,1,Wrong,0.747140054797626,7,S04,M,R,18,2
ChD_BB_v3,5,4,63,0,Correct,0.44830096300285,6,S04,M,R,18,4
ChD_BB_v3,5,4,64,1,Correct,0.567835575721404,6,S04,M,R,18,1
ChD_BB_v3,5,4,65,1,Correct,0.547915358933949,6,S04,M,R,18,1
ChD_BB_v3,5,4,66,1,Correct,0.498111915633331,6,S04,M,R,18,1
ChD_BB_v3,5,4,67,1,Correct,0.498107136968997,6,S04,M,R,18,1
ChD_BB_v3,5,4,68,1,Correct,0.587759547173562,7,S04,M,R,18,1
ChD_BB_v3,5,4,69,0,Correct,0.697332856832304,7,S04,M,R,18,4
ChD_BB_v3,5,4,70,1,Wrong,1.59385252154698,6,S04,M,R,18,2
ChD_BB_v3,5,4,71,1,Correct,0.667461918312426,6,S04,M,R,18,1
ChD_BB_v3,5,4,72,0,Correct,0.846759912058872,5,S04,M,R,18,4
ChD_BB_v3,6,4,1,0,Correct,0.488152319239873,6,S04,M,R,18,4
ChD_BB_v3,6,4,2,1,Correct,0.527991387481336,5,S04,M,R,18,1
ChD_BB_v3,6,4,3,1,Correct,0.508068440028353,5,S04,M,R,18,1
ChD_BB_v3,6,4,4,1,Correct,0.438340683942215,7,S04,M,R,18,1
ChD_BB_v3,6,4,5,1,Correct,0.697332856832304,6,S04,M,R,18,1
ChD_BB_v3,6,4,6,1,Correct,0.418417053823418,5,S04,M,R,18,1
ChD_BB_v3,6,4,7,1,Correct,0.478186237515729,5,S04,M,R,18,1
ChD_BB_v3,6,4,8,0,Correct,0.647532144196759,7,S04,M,R,18,4
ChD_BB_v3,6,4,9,0,Correct,0.438380619921872,6,S04,M,R,18,4
ChD_BB_v3,6,4,10,0,Correct,0.547917065599393,7,S04,M,R,18,4
ChD_BB_v3,6,4,11,0,Correct,0.537961223870639,6,S04,M,R,18,4
ChD_BB_v3,6,4,12,1,Wrong,0.468223910455833,6,S04,M,R,18,2
ChD_BB_v3,6,4,13,1,Correct,0.577797220113666,5,S04,M,R,18,1
ChD_BB_v3,6,4,14,0,Correct,0.627605442078618,7,S04,M,R,18,4
ChD_BB_v3,6,4,15,0,Correct,0.657490375258135,6,S04,M,R,18,4
ChD_BB_v3,6,4,16,0,Correct,0.50807594935776,5,S04,M,R,18,4
ChD_BB_v3,6,4,17,0,Correct,0.478185554849006,6,S04,M,R,18,4
ChD_BB_v3,6,4,18,1,Correct,0.786985267037323,5,S04,M,R,18,1
ChD_BB_v3,6,4,19,0,Correct,0.717255121618564,6,S04,M,R,18,4
ChD_BB_v3,6,4,20,0,Correct,0.567835575721404,7,S04,M,R,18,4
ChD_BB_v3,6,4,21,0,Correct,0.926447947204736,7,S04,M,R,18,4
ChD_BB_v3,6,4,22,0,Correct,0.677409909379321,6,S04,M,R,18,4
ChD_BB_v3,6,4,23,0,Correct,0.498118059629746,6,S04,M,R,18,4
ChD_BB_v3,6,4,24,0,Correct,1.59385183888116,5,S04,M,R,18,4
ChD_BB_v3,6,4,25,1,Wrong,0.667448947652872,7,S04,M,R,18,2
ChD_BB_v3,6,4,26,1,Correct,0.547914676267681,5,S04,M,R,18,1
ChD_BB_v3,6,4,27,1,Correct,0.936405154266936,5,S04,M,R,18,1
ChD_BB_v3,6,4,28,1,Correct,0.597720850233372,6,S04,M,R,18,1
ChD_BB_v3,6,4,29,1,Correct,0.707300645222347,5,S04,M,R,18,1
ChD_BB_v3,6,4,30,1,Wrong,0.508068440028353,5,S04,M,R,18,2
ChD_BB_v3,6,4,31,0,Correct,1.10574833028289,7,S04,M,R,18,4
ChD_BB_v3,6,4,32,1,Wrong,0.826890553911824,6,S04,M,R,18,2
ChD_BB_v3,6,4,33,0,Correct,0.448301987002935,5,S04,M,R,18,4
ChD_BB_v3,6,4,34,0,Correct,0.418418077822594,7,S04,M,R,18,4
ChD_BB_v3,6,4,35,1,Correct,0.966297938109221,7,S04,M,R,18,1
ChD_BB_v3,6,4,36,0,Correct,0.68737087110577,5,S04,M,R,18,4
ChD_BB_v3,6,4,37,1,Wrong,0.687373260438392,7,S04,M,R,18,2
ChD_BB_v3,6,4,38,1,Correct,0.587768421835506,6,S04,M,R,18,1
ChD_BB_v3,6,4,39,0,Correct,1.02605688180523,5,S04,M,R,18,4
ChD_BB_v3,6,4,40,1,Correct,1.04599075191851,6,S04,M,R,18,1
ChD_BB_v3,6,4,41,0,Correct,0.607682494626545,5,S04,M,R,18,4
ChD_BB_v3,6,4,42,1,Correct,0.717259217616174,5,S04,M,R,18,1
ChD_BB_v3,6,4,43,1,Wrong,1.38479677831828,7,S04,M,R,18,2
ChD_BB_v3,6,4,44,1,Correct,0.72725397132541,6,S04,M,R,18,1
ChD_BB_v3,6,4,45,0,Correct,0.806909579822843,5,S04,M,R,18,4
ChD_BB_v3,6,4,46,1,Correct,0.687373260438392,7,S04,M,R,18,1
ChD_BB_v3,6,4,47,1,Correct,0.796947252762948,5,S04,M,R,18,1
ChD_BB_v3,6,4,48,0,Correct,0.836797243666524,7,S04,M,R,18,4
ChD_BB_v3,6,4,49,0,Correct,0.587758523174386,6,S04,M,R,18,4
ChD_BB_v3,6,4,50,1,Correct,0.806908214489397,7,S04,M,R,18,1
ChD_BB_v3,6,4,51,0,Correct,0.597723922231808,6,S04,M,R,18,4
ChD_BB_v3,6,4,52,1,Correct,0.667505267623881,7,S04,M,R,18,1
ChD_BB_v3,6,4,53,0,Correct,0.617644480352169,6,S04,M,R,18,4
ChD_BB_v3,6,4,54,0,Correct,0.428380746215851,7,S04,M,R,18,4
ChD_BB_v3,6,4,55,1,Wrong,0.737184554401779,7,S04,M,R,18,2
ChD_BB_v3,6,4,56,0,Correct,0.946368846658459,6,S04,M,R,18,4
ChD_BB_v3,6,4,57,1,Correct,0.577805070777345,5,S04,M,R,18,1
ChD_BB_v3,6,4,58,0,Correct,0.75710306452288,7,S04,M,R,18,4
ChD_BB_v3,6,4,59,0,Correct,0.94663347002637,6,S04,M,R,18,4
ChD_BB_v3,6,4,60,0,Correct,0.677412981377756,7,S04,M,R,18,4
ChD_BB_v3,6,4,61,1,Correct,0.667450995652132,5,S04,M,R,18,1
ChD_BB_v3,6,4,62,1,Correct,0.697353678154627,7,S04,M,R,18,1
ChD_BB_v3,6,4,63,0,Correct,0.796949983428021,7,S04,M,R,18,4
ChD_BB_v3,6,4,64,0,Correct,0.368610538524365,5,S04,M,R,18,4
ChD_BB_v3,6,4,65,1,Correct,0.637567427805152,6,S04,M,R,18,1
ChD_BB_v3,6,4,66,0,Correct,0.547913993600957,7,S04,M,R,18,4
ChD_BB_v3,6,4,67,1,Correct,0.52799616614567,6,S04,M,R,18,1
ChD_BB_v3,6,4,68,1,Correct,0.617644480352169,6,S04,M,R,18,1
ChD_BB_v3,6,4,69,0,Correct,0.537954055873684,6,S04,M,R,18,4
ChD_BB_v3,6,4,70,1,Wrong,0.79694964209466,7,S04,M,R,18,2
ChD_BB_v3,6,4,71,0,Correct,0.458274554056402,5,S04,M,R,18,4
ChD_BB_v3,6,4,72,1,Correct,0.478186920181543,5,S04,M,R,18,1
ChD_BB_v3,1,7,1,1,Wrong,0.890609532482508,7,S05,M,R,18,2
ChD_BB_v3,1,7,2,0,Correct,1.07072759283564,7,S05,M,R,18,4
ChD_BB_v3,1,7,3,1,Correct,0.450330308210209,6,S05,M,R,18,1
ChD_BB_v3,1,7,4,0,Correct,0.560400028945114,5,S05,M,R,18,4
ChD_BB_v3,1,7,5,0,Correct,0.75052172791095,6,S05,M,R,18,4
ChD_BB_v3,1,7,6,1,Correct,0.610431534006316,7,S05,M,R,18,1
ChD_BB_v3,1,7,7,1,Correct,0.770535490468633,7,S05,M,R,18,1
ChD_BB_v3,1,7,8,0,Correct,0.590418795448491,7,S05,M,R,18,4
ChD_BB_v3,1,7,9,0,Correct,0.790545498360248,6,S05,M,R,18,4
ChD_BB_v3,1,7,10,0,Correct,0.900615901761421,5,S05,M,R,18,4
ChD_BB_v3,1,7,11,0,Correct,1.00068266655012,7,S05,M,R,18,4
ChD_BB_v3,1,7,12,1,Correct,0.650461789787892,6,S05,M,R,18,1
ChD_BB_v3,1,7,13,1,Correct,0.69048146423776,5,S05,M,R,18,1
ChD_BB_v3,1,7,14,1,Correct,0.950648772155842,6,S05,M,R,18,1
ChD_BB_v3,1,7,15,0,Correct,1.01069005982889,7,S05,M,R,18,4
ChD_BB_v3,1,7,16,0,Correct,0.930636033598016,7,S05,M,R,18,4
ChD_BB_v3,1,7,17,1,Correct,0.66047566839894,5,S05,M,R,18,1
ChD_BB_v3,1,7,18,1,Wrong,0.670478283011557,6,S05,M,R,18,2
ChD_BB_v3,1,7,19,0,Correct,1.16078320967973,5,S05,M,R,18,4
ChD_BB_v3,1,7,20,0,Correct,0.90061726709464,5,S05,M,R,18,4
ChD_BB_v3,1,7,21,1,Correct,0.430319958985233,7,S05,M,R,18,1
ChD_BB_v3,1,7,22,1,Correct,0.760536630521856,5,S05,M,R,18,1
ChD_BB_v3,1,7,23,1,Correct,0.830572340809117,5,S05,M,R,18,1
ChD_BB_v3,1,7,24,0,Wrong,1.85122951659012,6,S05,M,R,18,3
ChD_BB_v3,1,7,25,0,Correct,1.07072691016915,7,S05,M,R,18,4
ChD_BB_v3,1,7,26,0,Wrong,1.42094676293174,7,S05,M,R,18,3
ChD_BB_v3,1,7,27,1,Correct,0.880603163203823,6,S05,M,R,18,1
ChD_BB_v3,1,7,28,1,Correct,0.940641378877072,5,S05,M,R,18,1
ChD_BB_v3,1,7,29,0,Correct,0.900616243094782,7,S05,M,R,18,4
ChD_BB_v3,1,7,30,1,Correct,0.860591789978989,5,S05,M,R,18,1
ChD_BB_v3,1,7,31,1,Correct,0.860591107312266,7,S05,M,R,18,1
ChD_BB_v3,1,7,32,1,Correct,0.790544815693525,6,S05,M,R,18,1
ChD_BB_v3,1,7,33,0,Correct,0.960654117435124,6,S05,M,R,18,4
ChD_BB_v3,1,7,34,1,Correct,0.800553574305513,7,S05,M,R,18,1
ChD_BB_v3,1,7,35,1,Correct,0.590417771448633,6,S05,M,R,18,1
ChD_BB_v3,1,7,36,1,Correct,1.48098497860522,5,S05,M,R,18,1
ChD_BB_v3,1,7,37,0,Correct,1.21081778674028,5,S05,M,R,18,4
ChD_BB_v3,1,7,38,1,Correct,0.860594179311838,6,S05,M,R,18,1
ChD_BB_v3,1,7,39,1,Correct,1.09073691806076,6,S05,M,R,18,1
ChD_BB_v3,1,7,40,1,Correct,0.810569159582915,5,S05,M,R,18,1
ChD_BB_v3,1,7,41,0,Correct,0.690484877570466,6,S05,M,R,18,4
ChD_BB_v3,1,7,42,1,Correct,0.910628073706116,6,S05,M,R,18,1
ChD_BB_v3,1,7,43,0,Correct,0.890610215149231,7,S05,M,R,18,4
ChD_BB_v3,1,7,44,1,Wrong,0.970659462714179,7,S05,M,R,18,2
ChD_BB_v3,1,7,45,1,Correct,0.590420843448205,7,S05,M,R,18,1
ChD_BB_v3,1,7,46,0,Correct,1.09075466739124,6,S05,M,R,18,4
ChD_BB_v3,1,7,47,1,Wrong,1.0307000677205,5,S05,M,R,18,2
ChD_BB_v3,1,7,48,1,Correct,0.500363519937991,5,S05,M,R,18,1
ChD_BB_v3,1,7,49,0,Correct,1.35090490864557,6,S05,M,R,18,4
ChD_BB_v3,1,7,50,0,Correct,0.950650478822195,6,S05,M,R,18,4
ChD_BB_v3,1,7,51,0,Correct,1.30087169691801,6,S05,M,R,18,4
ChD_BB_v3,1,7,52,1,Correct,0.77053378380228,6,S05,M,R,18,1
ChD_BB_v3,1,7,53,1,Correct,1.08073054878185,7,S05,M,R,18,1
ChD_BB_v3,1,7,54,0,Correct,0.940642061543795,6,S05,M,R,18,4
ChD_BB_v3,1,7,55,0,Correct,0.760527073190006,5,S05,M,R,18,4
ChD_BB_v3,1,7,56,1,Correct,0.710494885462308,7,S05,M,R,18,1
ChD_BB_v3,1,7,57,1,Wrong,0.890611580482223,6,S05,M,R,18,2
ChD_BB_v3,1,7,58,0,Correct,0.790546863693239,5,S05,M,R,18,4
ChD_BB_v3,1,7,59,1,Correct,1.22081903602013,7,S05,M,R,18,1
ChD_BB_v3,1,7,60,0,Correct,0.770532759802422,5,S05,M,R,18,4
ChD_BB_v3,1,7,61,1,Correct,0.630446661897217,5,S05,M,R,18,1
ChD_BB_v3,1,7,62,0,Correct,0.950648430822707,7,S05,M,R,18,4
ChD_BB_v3,1,7,63,0,Correct,0.930653100261775,6,S05,M,R,18,4
ChD_BB_v3,1,7,64,0,Correct,0.980667879992579,5,S05,M,R,18,4
ChD_BB_v3,1,7,65,0,Correct,0.750524799910522,5,S05,M,R,18,4
ChD_BB_v3,1,7,66,0,Correct,0.700488516183168,6,S05,M,R,18,4
ChD_BB_v3,1,7,67,0,Correct,0.850589175366145,7,S05,M,R,18,4
ChD_BB_v3,1,7,68,0,Correct,0.720510812072844,5,S05,M,R,18,4
ChD_BB_v3,1,7,69,0,Correct,0.69048146423776,7,S05,M,R,18,4
ChD_BB_v3,1,7,70,1,Correct,0.710497274795157,7,S05,M,R,18,1
ChD_BB_v3,1,7,71,1,Correct,0.550398779665261,5,S05,M,R,18,1
ChD_BB_v3,1,7,72,0,Correct,0.570407763557018,5,S05,M,R,18,4
ChD_BB_v3,2,4,1,0,Correct,1.06073317022166,5,S05,M,R,18,4
ChD_BB_v3,2,4,2,1,Correct,0.640453372509492,6,S05,M,R,18,1
ChD_BB_v3,2,4,3,0,Correct,0.460334629489635,6,S05,M,R,18,4
ChD_BB_v3,2,4,4,1,Correct,1.24085430257413,7,S05,M,R,18,1
ChD_BB_v3,2,4,5,0,Correct,0.610430851340047,5,S05,M,R,18,4
ChD_BB_v3,2,4,6,1,Correct,0.460336336155533,7,S05,M,R,18,1
ChD_BB_v3,2,4,7,0,Correct,0.560399687611753,7,S05,M,R,18,4
ChD_BB_v3,2,4,8,0,Correct,0.520375575829094,6,S05,M,R,18,4
ChD_BB_v3,2,4,9,0,Correct,0.890610215148777,6,S05,M,R,18,4
ChD_BB_v3,2,4,10,0,Correct,0.700489881516614,7,S05,M,R,18,4
ChD_BB_v3,2,4,11,0,Correct,0.780542883747176,7,S05,M,R,18,4
ChD_BB_v3,2,4,12,1,Correct,0.530379897108292,7,S05,M,R,18,1
ChD_BB_v3,2,4,13,1,Correct,0.540389338387004,5,S05,M,R,18,1
ChD_BB_v3,2,4,14,1,Correct,0.45032894287699,5,S05,M,R,18,1
ChD_BB_v3,2,4,15,1,Correct,1.04070643699919,5,S05,M,R,18,1
ChD_BB_v3,2,4,16,0,Correct,0.800557328971354,7,S05,M,R,18,4
ChD_BB_v3,2,4,17,1,Wrong,0.650555997771357,7,S05,M,R,18,2
ChD_BB_v3,2,4,18,0,Correct,0.660463380400879,7,S05,M,R,18,4
ChD_BB_v3,2,4,19,0,Correct,1.57104435011538,6,S05,M,R,18,4
ChD_BB_v3,2,4,20,0,Correct,0.74051433463218,6,S05,M,R,18,4
ChD_BB_v3,2,4,21,1,Correct,0.74051433463218,5,S05,M,R,18,1
ChD_BB_v3,2,4,22,1,Correct,1.42094846959832,7,S05,M,R,18,1
ChD_BB_v3,2,4,23,1,Correct,0.730507624020361,6,S05,M,R,18,1
ChD_BB_v3,2,4,24,1,Wrong,1.49099134788436,5,S05,M,R,18,2
ChD_BB_v3,2,4,25,0,Correct,0.800558011638077,5,S05,M,R,18,4
ChD_BB_v3,2,4,26,0,Wrong,1.62107517250985,5,S05,M,R,18,3
ChD_BB_v3,2,4,27,0,Correct,1.05071144094511,7,S05,M,R,18,4
ChD_BB_v3,2,4,28,1,Correct,0.980669245325798,5,S05,M,R,18,1
ChD_BB_v3,2,4,29,1,Correct,0.600424823394042,7,S05,M,R,18,1
ChD_BB_v3,2,4,30,1,Correct,0.950670391641847,7,S05,M,R,18,1
ChD_BB_v3,2,4,31,0,Correct,1.74115160385681,7,S05,M,R,18,4
ChD_BB_v3,2,4,32,0,Correct,0.770533783801825,7,S05,M,R,18,4
ChD_BB_v3,2,4,33,0,Correct,0.740513310632095,6,S05,M,R,18,4
ChD_BB_v3,2,4,34,1,Wrong,1.35090251931249,6,S05,M,R,18,2
ChD_BB_v3,2,4,35,1,Wrong,0.93063535093152,7,S05,M,R,18,2
ChD_BB_v3,2,4,36,0,Correct,1.88124452842765,5,S05,M,R,18,4
ChD_BB_v3,2,4,37,0,Correct,0.700489540183253,7,S05,M,R,18,4
ChD_BB_v3,2,4,38,1,Correct,0.590427670113618,6,S05,M,R,18,1
ChD_BB_v3,2,4,39,0,Correct,1.46098589337799,6,S05,M,R,18,4
ChD_BB_v3,2,4,40,1,Correct,0.460336336155533,5,S05,M,R,18,1
ChD_BB_v3,2,4,41,0,Correct,0.980666173326454,6,S05,M,R,18,4
ChD_BB_v3,2,4,42,1,Correct,0.65045666978906,5,S05,M,R,18,1
ChD_BB_v3,2,4,43,1,Correct,0.630443931231234,6,S05,M,R,18,1
ChD_BB_v3,2,4,44,1,Correct,0.510367158550466,6,S05,M,R,18,1
ChD_BB_v3,2,4,45,1,Correct,0.450328942877445,7,S05,M,R,18,1
ChD_BB_v3,2,4,46,0,Correct,0.670472821679136,7,S05,M,R,18,4
ChD_BB_v3,2,4,47,0,Correct,1.08073089011521,7,S05,M,R,18,4
ChD_BB_v3,2,4,48,1,Correct,0.560400028945114,6,S05,M,R,18,1
ChD_BB_v3,2,4,49,0,Correct,1.32088545947547,5,S05,M,R,18,4
ChD_BB_v3,2,4,50,0,Correct,0.720501596074355,6,S05,M,R,18,4
ChD_BB_v3,2,4,51,1,Correct,0.590420160781482,6,S05,M,R,18,1
ChD_BB_v3,2,4,52,0,Correct,0.720501596074355,7,S05,M,R,18,4
ChD_BB_v3,2,4,53,1,Correct,0.590419136781852,6,S05,M,R,18,1
ChD_BB_v3,2,4,54,1,Wrong,0.940646157543224,6,S05,M,R,18,2
ChD_BB_v3,2,4,55,0,Correct,0.710494885462081,6,S05,M,R,18,4
ChD_BB_v3,2,4,56,0,Correct,0.680480897624402,5,S05,M,R,18,4
ChD_BB_v3,2,4,57,0,Correct,0.69051304013416,5,S05,M,R,18,4
ChD_BB_v3,2,4,58,1,Correct,0.460336677489349,5,S05,M,R,18,1
ChD_BB_v3,2,4,59,0,Correct,0.640454396509122,6,S05,M,R,18,4
ChD_BB_v3,2,4,60,1,Correct,0.750525823910152,7,S05,M,R,18,1
ChD_BB_v3,2,4,61,1,Correct,0.520375575829094,5,S05,M,R,18,1
ChD_BB_v3,2,4,62,1,Correct,0.86058940064614,7,S05,M,R,18,1
ChD_BB_v3,2,4,63,0,Correct,0.550394000999563,6,S05,M,R,18,4
ChD_BB_v3,2,4,64,1,Correct,0.810558919584569,6,S05,M,R,18,1
ChD_BB_v3,2,4,65,0,Correct,0.580412767502939,5,S05,M,R,18,4
ChD_BB_v3,2,4,66,1,Wrong,0.900616243095237,5,S05,M,R,18,2
ChD_BB_v3,2,4,67,0,Correct,0.580416180835646,5,S05,M,R,18,4
ChD_BB_v3,2,4,68,1,Wrong,0.610431534006316,7,S05,M,R,18,2
ChD_BB_v3,2,4,69,0,Correct,0.660464745733871,6,S05,M,R,18,4
ChD_BB_v3,2,4,70,0,Correct,0.790546863693467,5,S05,M,R,18,4
ChD_BB_v3,2,4,71,1,Correct,0.520375575829094,5,S05,M,R,18,1
ChD_BB_v3,2,4,72,1,Correct,0.640449959176785,5,S05,M,R,18,1
ChD_BB_v3,3,4,1,0,Correct,0.750521045244,5,S05,M,R,18,4
ChD_BB_v3,3,4,2,0,Correct,0.590418795448491,6,S05,M,R,18,4
ChD_BB_v3,3,4,3,0,Correct,0.570492876170324,7,S05,M,R,18,4
ChD_BB_v3,3,4,4,0,Correct,0.690482488237617,6,S05,M,R,18,4
ChD_BB_v3,3,4,5,1,Correct,0.440327010930869,7,S05,M,R,18,1
ChD_BB_v3,3,4,6,0,Correct,0.550395366332555,6,S05,M,R,18,4
ChD_BB_v3,3,4,7,1,Correct,0.540387973053557,5,S05,M,R,18,1
ChD_BB_v3,3,4,8,1,Correct,1.19080061084989,5,S05,M,R,18,1
ChD_BB_v3,3,4,9,1,Correct,0.460335994822626,6,S05,M,R,18,1
ChD_BB_v3,3,4,10,0,Wrong,1.12075636723086,6,S05,M,R,18,3
ChD_BB_v3,3,4,11,0,Correct,0.730509672020075,5,S05,M,R,18,4
ChD_BB_v3,3,4,12,0,Correct,0.800553574305741,7,S05,M,R,18,4
ChD_BB_v3,3,4,13,1,Correct,0.720500572074725,6,S05,M,R,18,1
ChD_BB_v3,3,4,14,1,Correct,0.7004878335169,5,S05,M,R,18,1
ChD_BB_v3,3,4,15,1,Correct,0.620437561951867,6,S05,M,R,18,1
ChD_BB_v3,3,4,16,1,Wrong,0.93063535093152,7,S05,M,R,18,2
ChD_BB_v3,3,4,17,0,Wrong,1.41094312431904,7,S05,M,R,18,3
ChD_BB_v3,3,4,18,0,Correct,0.890609532482508,5,S05,M,R,18,4
ChD_BB_v3,3,4,19,0,Correct,0.65045871778832,5,S05,M,R,18,4
ChD_BB_v3,3,4,20,0,Correct,0.570455439862731,7,S05,M,R,18,4
ChD_BB_v3,3,4,21,1,Correct,0.760530827856073,7,S05,M,R,18,1
ChD_BB_v3,3,4,22,0,Correct,1.69112726679438,6,S05,M,R,18,4
ChD_BB_v3,3,4,23,0,Correct,0.530504210440272,5,S05,M,R,18,4
ChD_BB_v3,3,4,24,1,Correct,0.530381945108461,5,S05,M,R,18,1
ChD_BB_v3,3,4,25,1,Correct,0.940643426876786,7,S05,M,R,18,1
ChD_BB_v3,3,4,26,1,Correct,0.550398438331899,5,S05,M,R,18,1
ChD_BB_v3,3,4,27,1,Wrong,1.10074362867304,5,S05,M,R,18,2
ChD_BB_v3,3,4,28,0,Correct,0.740513651965912,5,S05,M,R,18,4
ChD_BB_v3,3,4,29,0,Correct,0.700488174850261,7,S05,M,R,18,4
ChD_BB_v3,3,4,30,1,Correct,0.570410494223456,6,S05,M,R,18,1
ChD_BB_v3,3,4,31,1,Correct,0.730507624019906,6,S05,M,R,18,1
ChD_BB_v3,3,4,32,0,Correct,0.820602835523705,7,S05,M,R,18,4
ChD_BB_v3,3,4,33,0,Correct,0.700489198849891,5,S05,M,R,18,4
ChD_BB_v3,3,4,34,0,Wrong,0.780542201080907,6,S05,M,R,18,3
ChD_BB_v3,3,4,35,0,Correct,0.680475777625343,7,S05,M,R,18,4
ChD_BB_v3,3,4,36,0,Correct,0.910632852371814,7,S05,M,R,18,4
ChD_BB_v3,3,4,37,0,Correct,0.650456669788605,6,S05,M,R,18,4
ChD_BB_v3,3,4,38,0,Wrong,1.18079355890471,6,S05,M,R,18,3
ChD_BB_v3,3,4,39,1,Correct,1.45096621210162,6,S05,M,R,18,1
ChD_BB_v3,3,4,40,1,Correct,0.590417771448861,7,S05,M,R,18,1
ChD_BB_v3,3,4,41,0,Correct,0.630444272564141,6,S05,M,R,18,4
ChD_BB_v3,3,4,42,1,Correct,1.88123974976195,5,S05,M,R,18,1
ChD_BB_v3,3,4,43,0,Correct,1.1707875309587,6,S05,M,R,18,4
ChD_BB_v3,3,4,44,1,Correct,0.710497274795157,6,S05,M,R,18,1
ChD_BB_v3,3,4,45,1,Correct,0.720501254740993,6,S05,M,R,18,1
ChD_BB_v3,3,4,46,0,Correct,0.600425506060765,6,S05,M,R,18,4
ChD_BB_v3,3,4,47,1,Correct,0.700497732181657,5,S05,M,R,18,1
ChD_BB_v3,3,4,48,0,Correct,0.550393659666202,7,S05,M,R,18,4
ChD_BB_v3,3,4,49,1,Correct,1.36091025392485,7,S05,M,R,18,1
ChD_BB_v3,3,4,50,1,Correct,0.580414132835931,5,S05,M,R,18,1
ChD_BB_v3,3,4,51,0,Correct,0.580411402169948,7,S05,M,R,18,4
ChD_BB_v3,3,4,52,1,Correct,0.550395024999648,6,S05,M,R,18,1
ChD_BB_v3,3,4,53,1,Correct,0.56040549027708,5,S05,M,R,18,1
ChD_BB_v3,3,4,54,1,Correct,0.450329625543714,7,S05,M,R,18,1
ChD_BB_v3,3,4,55,1,Wrong,0.600425506060765,7,S05,M,R,18,2
ChD_BB_v3,3,4,56,1,Correct,0.830571316809032,7,S05,M,R,18,1
ChD_BB_v3,3,4,57,1,Correct,1.0407084849989,7,S05,M,R,18,1
ChD_BB_v3,3,4,58,1,Correct,0.610432216673039,7,S05,M,R,18,1
ChD_BB_v3,3,4,59,1,Correct,0.910627049706031,5,S05,M,R,18,1
ChD_BB_v3,3,4,60,1,Wrong,0.740514675965542,5,S05,M,R,18,2
ChD_BB_v3,3,4,61,1,Correct,0.710495568128349,5,S05,M,R,18,1
ChD_BB_v3,3,4,62,0,Correct,0.780540835747916,5,S05,M,R,18,4
ChD_BB_v3,3,4,63,1,Correct,0.680476801625427,6,S05,M,R,18,1
ChD_BB_v3,3,4,64,0,Correct,1.01069415582786,6,S05,M,R,18,4
ChD_BB_v3,3,4,65,1,Correct,0.620437903285229,7,S05,M,R,18,1
ChD_BB_v3,3,4,66,0,Correct,0.640450983176415,5,S05,M,R,18,4
ChD_BB_v3,3,4,67,0,Correct,0.630445296564226,5,S05,M,R,18,4
ChD_BB_v3,3,4,68,0,Correct,0.840578027421307,7,S05,M,R,18,4
ChD_BB_v3,3,4,69,0,Correct,0.53037955577493,6,S05,M,R,18,4
ChD_BB_v3,3,4,70,0,Wrong,1.02072953843523,6,S05,M,R,18,3
ChD_BB_v3,3,4,71,1,Correct,0.520377282495901,5,S05,M,R,18,1
ChD_BB_v3,3,4,72,0,Correct,0.600429943393556,7,S05,M,R,18,4
ChD_BB_v3,4,0,1,1,Correct,0.560400370278021,6,S05,M,R,18,1
ChD_BB_v3,4,0,2,0,Correct,0.730507624019906,5,S05,M,R,18,4
ChD_BB_v3,4,0,3,1,Wrong,0.720503985407431,7,S05,M,R,18,2
ChD_BB_v3,4,0,4,1,Correct,0.590420160781482,7,S05,M,R,18,1
ChD_BB_v3,4,0,5,1,Correct,0.560402076944829,5,S05,M,R,18,1
ChD_BB_v3,4,0,6,1,Correct,0.830570975475671,5,S05,M,R,18,1
ChD_BB_v3,4,0,7,1,Wrong,1.30087033158502,7,S05,M,R,18,2
ChD_BB_v3,4,0,8,0,Correct,0.580411743503309,5,S05,M,R,18,4
ChD_BB_v3,4,0,9,0,Correct,0.710495226795442,6,S05,M,R,18,4
ChD_BB_v3,4,0,10,0,Correct,1.01068528116319,6,S05,M,R,18,4
ChD_BB_v3,4,0,11,1,Correct,0.55039434233247,5,S05,M,R,18,1
ChD_BB_v3,4,0,12,0,Wrong,1.01073136115518,6,S05,M,R,18,3
ChD_BB_v3,4,0,13,0,Correct,0.640452348509407,6,S05,M,R,18,4
ChD_BB_v3,4,0,14,0,Correct,0.810558578251207,7,S05,M,R,18,4
ChD_BB_v3,4,0,15,1,Correct,0.470353286766381,7,S05,M,R,18,1
ChD_BB_v3,4,0,16,0,Correct,0.700488174850261,6,S05,M,R,18,4
ChD_BB_v3,4,0,17,0,Correct,0.840579051420937,6,S05,M,R,18,4
ChD_BB_v3,4,0,18,1,Wrong,0.960655141434527,7,S05,M,R,18,2
ChD_BB_v3,4,0,19,1,Wrong,1.10074465267312,7,S05,M,R,18,2
ChD_BB_v3,4,0,20,1,Correct,1.03070245705335,5,S05,M,R,18,1
ChD_BB_v3,4,0,21,0,Correct,0.950654916155213,6,S05,M,R,18,4
ChD_BB_v3,4,0,22,1,Wrong,1.6510929150136,5,S05,M,R,18,2
ChD_BB_v3,4,0,23,1,Wrong,0.800552550305656,6,S05,M,R,18,2
ChD_BB_v3,4,0,24,0,Correct,0.660463721734241,6,S05,M,R,18,4
ChD_BB_v3,4,0,25,0,Correct,0.670469749679792,6,S05,M,R,18,4
ChD_BB_v3,4,0,26,0,Wrong,0.730507624019906,6,S05,M,R,18,3
ChD_BB_v3,4,0,27,1,Wrong,0.660464063067147,5,S05,M,R,18,2
ChD_BB_v3,4,0,28,0,Correct,0.630447685896847,5,S05,M,R,18,4
ChD_BB_v3,4,0,29,0,Wrong,0.810558919584569,7,S05,M,R,18,3
ChD_BB_v3,4,0,30,1,Wrong,1.32088614214174,7,S05,M,R,18,2
ChD_BB_v3,4,0,31,0,Correct,1.21081471474116,7,S05,M,R,18,4
ChD_BB_v3,4,0,32,0,Correct,1.78117639830573,5,S05,M,R,18,4
ChD_BB_v3,4,0,33,1,Correct,0.760527414523367,5,S05,M,R,18,1
ChD_BB_v3,4,0,34,0,Correct,0.670468725680162,6,S05,M,R,18,4
ChD_BB_v3,4,0,35,1,Correct,0.700488516183168,5,S05,M,R,18,1
ChD_BB_v3,4,0,36,0,Correct,0.740515017298903,6,S05,M,R,18,4
ChD_BB_v3,4,0,37,0,Correct,0.660472596399368,7,S05,M,R,18,4
ChD_BB_v3,4,0,38,0,Correct,0.530380238441653,5,S05,M,R,18,4
ChD_BB_v3,4,0,39,0,Correct,1.01069893449402,7,S05,M,R,18,4
ChD_BB_v3,4,0,40,0,Wrong,1.12075704989758,5,S05,M,R,18,3
ChD_BB_v3,4,0,41,1,Wrong,0.640450641843054,6,S05,M,R,18,2
ChD_BB_v3,4,0,42,0,Correct,0.930635692264427,6,S05,M,R,18,4
ChD_BB_v3,4,0,43,1,Wrong,0.690481122904625,6,S05,M,R,18,2
ChD_BB_v3,4,0,44,1,Correct,0.710495226795442,7,S05,M,R,18,1
ChD_BB_v3,4,0,45,1,Correct,0.780540835747916,6,S05,M,R,18,1
ChD_BB_v3,4,0,46,1,Correct,1.62117889035523,7,S05,M,R,18,1
ChD_BB_v3,4,0,47,1,Correct,0.850585079366942,7,S05,M,R,18,1
ChD_BB_v3,4,0,48,0,Correct,0.540386266387204,6,S05,M,R,18,4
ChD_BB_v3,4,0,49,1,Correct,1.40093402437415,5,S05,M,R,18,1
ChD_BB_v3,4,0,50,1,Correct,0.63044290723115,7,S05,M,R,18,1
ChD_BB_v3,4,0,51,0,Correct,1.14077081245504,5,S05,M,R,18,4
ChD_BB_v3,4,0,52,1,Correct,0.740512627965827,6,S05,M,R,18,1
ChD_BB_v3,4,0,53,1,Correct,1.09073691806076,5,S05,M,R,18,1
ChD_BB_v3,4,0,54,0,Correct,1.06071985822374,7,S05,M,R,18,4
ChD_BB_v3,4,0,55,0,Correct,0.690568504222906,7,S05,M,R,18,4
ChD_BB_v3,4,0,56,0,Correct,0.630445296564226,7,S05,M,R,18,4
ChD_BB_v3,4,0,57,0,Correct,0.550396390332639,5,S05,M,R,18,4
ChD_BB_v3,4,0,58,0,Correct,0.560399687611753,6,S05,M,R,18,4
ChD_BB_v3,4,0,59,0,Correct,0.670471456346145,6,S05,M,R,18,4
ChD_BB_v3,4,0,60,0,Correct,0.650458376454958,6,S05,M,R,18,4
ChD_BB_v3,4,0,61,1,Correct,0.470342364101539,5,S05,M,R,18,1
ChD_BB_v3,4,0,62,1,Correct,0.840577686087945,7,S05,M,R,18,1
ChD_BB_v3,4,0,63,0,Correct,0.900616243094782,5,S05,M,R,18,4
ChD_BB_v3,4,0,64,1,Correct,0.720509105406491,7,S05,M,R,18,1
ChD_BB_v3,4,0,65,1,Correct,0.910622953707057,6,S05,M,R,18,1
ChD_BB_v3,4,0,66,1,Wrong,0.790547546359735,7,S05,M,R,18,2
ChD_BB_v3,4,0,67,1,Correct,0.630476814715216,5,S05,M,R,18,1
ChD_BB_v3,4,0,68,0,Correct,0.910623295040418,7,S05,M,R,18,4
ChD_BB_v3,4,0,69,1,Correct,0.870596452591321,5,S05,M,R,18,1
ChD_BB_v3,4,0,70,0,Correct,0.56040753827725,7,S05,M,R,18,4
ChD_BB_v3,4,0,71,1,Correct,0.4703427054349,5,S05,M,R,18,1
ChD_BB_v3,4,0,72,1,Correct,0.430317569652157,5,S05,M,R,18,1
ChD_BB_v3,5,7,1,1,Wrong,0.600427212727118,6,S05,M,R,18,2
ChD_BB_v3,5,7,2,0,Correct,0.640451324509777,7,S05,M,R,18,4
ChD_BB_v3,5,7,3,1,Wrong,1.34089751536702,7,S05,M,R,18,2
ChD_BB_v3,5,7,4,0,Correct,1.07072827550237,5,S05,M,R,18,4
ChD_BB_v3,5,7,5,0,Correct,0.540387290386834,6,S05,M,R,18,4
ChD_BB_v3,5,7,6,0,Correct,0.550544029817206,6,S05,M,R,18,4
ChD_BB_v3,5,7,7,1,Correct,0.570414248889524,7,S05,M,R,18,1
ChD_BB_v3,5,7,8,1,Correct,0.610432216673039,6,S05,M,R,18,1
ChD_BB_v3,5,7,9,0,Correct,0.70048885751653,7,S05,M,R,18,4
ChD_BB_v3,5,7,10,1,Correct,0.510368523883458,6,S05,M,R,18,1
ChD_BB_v3,5,7,11,0,Correct,0.500361813271638,5,S05,M,R,18,4
ChD_BB_v3,5,7,12,0,Correct,0.520376941162085,7,S05,M,R,18,4
ChD_BB_v3,5,7,13,0,Correct,0.540388997053642,6,S05,M,R,18,4
ChD_BB_v3,5,7,14,0,Correct,0.53038706510752,6,S05,M,R,18,4
ChD_BB_v3,5,7,15,1,Wrong,0.660466111067317,7,S05,M,R,18,2
ChD_BB_v3,5,7,16,0,Correct,0.81055926091793,6,S05,M,R,18,4
ChD_BB_v3,5,7,17,1,Correct,0.52037386916274,5,S05,M,R,18,1
ChD_BB_v3,5,7,18,1,Correct,0.640450641843054,6,S05,M,R,18,1
ChD_BB_v3,5,7,19,1,Correct,0.620439951284943,7,S05,M,R,18,1
ChD_BB_v3,5,7,20,1,Correct,0.490358857325432,6,S05,M,R,18,1
ChD_BB_v3,5,7,21,1,Correct,0.740515017298903,5,S05,M,R,18,1
ChD_BB_v3,5,7,22,0,Correct,0.93063637493115,5,S05,M,R,18,4
ChD_BB_v3,5,7,23,0,Correct,0.670471456346145,5,S05,M,R,18,4
ChD_BB_v3,5,7,24,1,Wrong,0.650458035122051,7,S05,M,R,18,2
ChD_BB_v3,5,7,25,0,Correct,0.720501596074355,7,S05,M,R,18,4
ChD_BB_v3,5,7,26,1,Correct,0.510381153215108,6,S05,M,R,18,1
ChD_BB_v3,5,7,27,1,Correct,0.750519338578101,7,S05,M,R,18,1
ChD_BB_v3,5,7,28,0,Correct,0.650463837787834,6,S05,M,R,18,4
ChD_BB_v3,5,7,29,1,Wrong,0.780540153081192,6,S05,M,R,18,2
ChD_BB_v3,5,7,30,1,Wrong,0.610443822004149,6,S05,M,R,18,2
ChD_BB_v3,5,7,31,0,Correct,0.670470432346515,5,S05,M,R,18,4
ChD_BB_v3,5,7,32,1,Correct,0.530384675774444,7,S05,M,R,18,1
ChD_BB_v3,5,7,33,1,Correct,0.610430851340047,5,S05,M,R,18,1
ChD_BB_v3,5,7,34,0,Correct,0.860590083312409,7,S05,M,R,18,4
ChD_BB_v3,5,7,35,1,Correct,1.35091583130995,7,S05,M,R,18,1
ChD_BB_v3,5,7,36,1,Correct,0.730508306686174,5,S05,M,R,18,1
ChD_BB_v3,5,7,37,0,Correct,0.700488857516984,7,S05,M,R,18,4
ChD_BB_v3,5,7,38,1,Correct,0.690483512237702,6,S05,M,R,18,1
ChD_BB_v3,5,7,39,1,Correct,0.530405155770682,7,S05,M,R,18,1
ChD_BB_v3,5,7,40,0,Correct,0.680484310957563,6,S05,M,R,18,4
ChD_BB_v3,5,7,41,0,Correct,0.620437903285229,6,S05,M,R,18,4
ChD_BB_v3,5,7,42,0,Timeout,NaN,5,S05,M,R,18,0
ChD_BB_v3,5,7,43,1,Correct,0.700488174850716,7,S05,M,R,18,1
ChD_BB_v3,5,7,44,0,Correct,0.780540835747916,5,S05,M,R,18,4
ChD_BB_v3,5,7,45,0,Correct,0.680475777626252,5,S05,M,R,18,4
ChD_BB_v3,5,7,46,0,Correct,0.620438585951042,7,S05,M,R,18,4
ChD_BB_v3,5,7,47,1,Correct,0.540387290387289,7,S05,M,R,18,1
ChD_BB_v3,5,7,48,0,Correct,1.11075102195203,5,S05,M,R,18,4
ChD_BB_v3,5,7,49,1,Correct,0.480362045377915,7,S05,M,R,18,1
ChD_BB_v3,5,7,50,0,Correct,1.5009987411629,5,S05,M,R,18,4
ChD_BB_v3,5,7,51,0,Correct,0.820563923530035,5,S05,M,R,18,4
ChD_BB_v3,5,7,52,1,Wrong,0.580413791502115,6,S05,M,R,18,2
ChD_BB_v3,5,7,53,0,Correct,0.660464404400054,7,S05,M,R,18,4
ChD_BB_v3,5,7,54,1,Correct,0.530383651774359,6,S05,M,R,18,1
ChD_BB_v3,5,7,55,0,Correct,0.820566312863566,5,S05,M,R,18,4
ChD_BB_v3,5,7,56,1,Correct,0.590418795448491,5,S05,M,R,18,1
ChD_BB_v3,5,7,57,0,Correct,0.580412084836216,5,S05,M,R,18,4
ChD_BB_v3,5,7,58,1,Correct,0.55039331833284,7,S05,M,R,18,1
ChD_BB_v3,5,7,59,0,Correct,0.500361471938277,5,S05,M,R,18,4
ChD_BB_v3,5,7,60,0,Correct,0.510368523883913,6,S05,M,R,18,4
ChD_BB_v3,5,7,61,0,Correct,0.670470432345605,6,S05,M,R,18,4
ChD_BB_v3,5,7,62,1,Correct,0.65045769378869,5,S05,M,R,18,1
ChD_BB_v3,5,7,63,1,Correct,0.740524233296937,6,S05,M,R,18,1
ChD_BB_v3,5,7,64,0,Correct,0.590418795448491,5,S05,M,R,18,4
ChD_BB_v3,5,7,65,1,Wrong,0.88060418720368,7,S05,M,R,18,2
ChD_BB_v3,5,7,66,1,Correct,0.670472480345775,7,S05,M,R,18,1
ChD_BB_v3,5,7,67,1,Wrong,0.800551867638933,5,S05,M,R,18,2
ChD_BB_v3,5,7,68,0,Correct,0.590419478115214,5,S05,M,R,18,4
ChD_BB_v3,5,7,69,0,Correct,0.680494892289043,6,S05,M,R,18,4
ChD_BB_v3,5,7,70,1,Correct,0.560401735611013,6,S05,M,R,18,1
ChD_BB_v3,5,7,71,1,Correct,0.510373643883427,5,S05,M,R,18,1
ChD_BB_v3,5,7,72,0,Correct,0.620437903285229,7,S05,M,R,18,4
ChD_BB_v3,6,0,1,1,Correct,0.610432216673039,6,S05,M,R,18,1
ChD_BB_v3,6,0,2,0,Correct,0.420310859040337,7,S05,M,R,18,4
ChD_BB_v3,6,0,3,1,Correct,0.460336677489349,7,S05,M,R,18,1
ChD_BB_v3,6,0,4,0,Correct,0.500361813271638,6,S05,M,R,18,4
ChD_BB_v3,6,0,5,1,Correct,0.490355102659364,5,S05,M,R,18,1
ChD_BB_v3,6,0,6,1,Wrong,0.780540153080283,5,S05,M,R,18,2
ChD_BB_v3,6,0,7,0,Correct,0.530379897108292,6,S05,M,R,18,4
