ID,block,trial,load,frequency,change,response,respType,RT,gender,age,country,response_key
1,1,1,5,0,0,1,CO,0.77012,Male,25,Hungary,j
1,1,2,7,0,0,1,CO,0.99918,Male,25,Hungary,j
1,1,3,5,0,1,1,Hit,0.533615,Male,25,Hungary,j
1,1,4,6,0,1,1,Hit,0.55018,Male,25,Hungary,j
1,1,5,5,0,0,1,CO,0.50202,Male,25,Hungary,j
1,1,6,5,0,1,0,miss,0.733735,Male,25,Hungary,j
1,1,7,7,0,1,1,Hit,0.60022,Male,25,Hungary,j
1,1,8,7,0,1,1,Hit,0.634285,Male,25,Hungary,j
1,1,9,6,0,1,1,Hit,0.701225,Male,25,Hungary,j
1,1,10,6,0,0,1,CO,0.74966,Male,25,Hungary,j
1,1,11,7,0,0,1,CO,0.64835,Male,25,Hungary,j
1,1,12,6,0,0,1,CO,0.66593,Male,25,Hungary,j
1,1,13,5,0,0,1,CO,0.63365,Male,25,Hungary,j
1,1,14,6,0,1,1,Hit,0.58386,Male,25,Hungary,j
1,1,15,6,0,0,1,CO,0.755095,Male,25,Hungary,j
1,1,16,7,0,0,1,CO,0.700345,Male,25,Hungary,j
1,1,17,7,0,0,1,CO,0.666915,Male,25,Hungary,j
1,1,18,6,0,0,1,CO,0.89864,Male,25,Hungary,j
1,1,19,5,0,1,1,Hit,0.615905,Male,25,Hungary,j
1,1,20,7,0,1,0,miss,1.18746,Male,25,Hungary,j
1,1,21,7,0,0,1,CO,0.766685,Male,25,Hungary,j
1,1,22,5,0,0,1,CO,0.616735,Male,25,Hungary,j
1,1,23,5,0,0,0,FA,0.89954,Male,25,Hungary,j
1,1,24,6,0,0,1,CO,0.68578,Male,25,Hungary,j
1,1,25,7,0,1,1,Hit,0.85489,Male,25,Hungary,j
1,1,26,7,0,1,0,miss,0.68254,Male,25,Hungary,j
1,1,27,6,0,1,1,Hit,0.867435,Male,25,Hungary,j
1,1,28,6,0,1,1,Hit,0.680305,Male,25,Hungary,j
1,1,29,5,0,1,1,Hit,0.535155,Male,25,Hungary,j
1,1,30,5,0,1,1,Hit,0.817485,Male,25,Hungary,j
1,2,1,6,4,0,0,FA,1.082955,Male,25,Hungary,j
1,2,2,7,4,0,0,FA,0.8151,Male,25,Hungary,j
1,2,3,5,4,0,1,CO,0.76654,Male,25,Hungary,j
1,2,4,7,4,0,1,CO,0.96691,Male,25,Hungary,j
1,2,5,5,4,1,1,Hit,0.63457,Male,25,Hungary,j
1,2,6,5,4,0,1,CO,0.55101,Male,25,Hungary,j
1,2,7,7,4,0,1,CO,0.59831,Male,25,Hungary,j
1,2,8,6,4,1,1,Hit,0.83209,Male,25,Hungary,j
1,2,9,7,4,1,1,Hit,0.667255,Male,25,Hungary,j
1,2,10,7,4,1,1,Hit,0.765,Male,25,Hungary,j
1,2,11,7,4,0,1,CO,1.015435,Male,25,Hungary,j
1,2,12,6,4,1,1,Hit,0.65159,Male,25,Hungary,j
1,2,13,5,4,0,1,CO,0.71564,Male,25,Hungary,j
1,2,14,6,4,0,1,CO,0.584685,Male,25,Hungary,j
1,2,15,7,4,1,1,Hit,0.61685,Male,25,Hungary,j
1,2,16,6,4,1,1,Hit,0.56654,Male,25,Hungary,j
1,2,17,7,4,1,1,Hit,0.65072,Male,25,Hungary,j
1,2,18,5,4,0,1,CO,0.63498,Male,25,Hungary,j
1,2,19,5,4,1,1,Hit,0.63444,Male,25,Hungary,j
1,2,20,6,4,0,1,CO,0.56849,Male,25,Hungary,j
1,2,21,7,4,1,1,Hit,1.133945,Male,25,Hungary,j
1,2,22,5,4,0,1,CO,0.483455,Male,25,Hungary,j
1,2,23,6,4,1,1,Hit,0.782715,Male,25,Hungary,j
1,2,24,6,4,0,1,CO,0.602815,Male,25,Hungary,j
1,2,25,5,4,1,0,miss,0.59984,Male,25,Hungary,j
1,2,26,6,4,1,1,Hit,0.681805,Male,25,Hungary,j
1,2,27,5,4,1,1,Hit,0.648415,Male,25,Hungary,j
1,2,28,6,4,0,1,CO,0.57033,Male,25,Hungary,j
1,2,29,7,4,0,1,CO,0.6666,Male,25,Hungary,j
1,2,30,5,4,1,0,miss,0.735105,Male,25,Hungary,j
1,3,1,7,4,1,1,Hit,0.5216,Male,25,Hungary,j
1,3,2,6,4,0,1,CO,0.51571,Male,25,Hungary,j
1,3,3,5,4,1,1,Hit,1.64757,Male,25,Hungary,j
1,3,4,6,4,1,1,Hit,0.69991,Male,25,Hungary,j
1,3,5,5,4,0,1,CO,0.69971,Male,25,Hungary,j
1,3,6,7,4,1,0,miss,0.966335,Male,25,Hungary,j
1,3,7,7,4,0,1,CO,0.699755,Male,25,Hungary,j
1,3,8,6,4,1,1,Hit,0.58509,Male,25,Hungary,j
1,3,9,6,4,0,1,CO,1.150205,Male,25,Hungary,j
1,3,10,5,4,0,1,CO,0.58414,Male,25,Hungary,j
1,3,11,7,4,0,1,CO,0.748135,Male,25,Hungary,j
1,3,12,6,4,1,0,miss,0.84994,Male,25,Hungary,j
1,3,13,6,4,0,1,CO,0.617085,Male,25,Hungary,j
1,3,14,7,4,1,1,Hit,0.898965,Male,25,Hungary,j
1,3,15,5,4,0,1,CO,0.599705,Male,25,Hungary,j
1,3,16,5,4,0,1,CO,0.79964,Male,25,Hungary,j
1,3,17,7,4,0,1,CO,0.699815,Male,25,Hungary,j
1,3,18,5,4,1,1,Hit,0.698975,Male,25,Hungary,j
1,3,19,7,4,1,1,Hit,0.59557,Male,25,Hungary,j
1,3,20,7,4,0,1,CO,0.75011,Male,25,Hungary,j
1,3,21,7,4,0,1,CO,0.784965,Male,25,Hungary,j
1,3,22,5,4,1,0,miss,0.54958,Male,25,Hungary,j
1,3,23,6,4,1,1,Hit,0.801535,Male,25,Hungary,j
1,3,24,5,4,0,1,CO,0.483025,Male,25,Hungary,j
1,3,25,6,4,0,1,CO,0.63313,Male,25,Hungary,j
1,3,26,7,4,1,1,Hit,0.54946,Male,25,Hungary,j
1,3,27,6,4,1,1,Hit,0.598855,Male,25,Hungary,j
1,3,28,5,4,1,1,Hit,0.599895,Male,25,Hungary,j
1,3,29,5,4,1,0,miss,0.600265,Male,25,Hungary,j
1,3,30,6,4,0,1,CO,0.63875,Male,25,Hungary,j
1,4,1,7,7,0,1,CO,0.59974,Male,25,Hungary,j
1,4,2,5,7,1,1,Hit,0.48239,Male,25,Hungary,j
1,4,3,6,7,1,1,Hit,0.516735,Male,25,Hungary,j
1,4,4,6,7,1,1,Hit,0.59966,Male,25,Hungary,j
1,4,5,5,7,0,1,CO,0.79969,Male,25,Hungary,j
1,4,6,7,7,0,1,CO,0.65267,Male,25,Hungary,j
1,4,7,5,7,0,1,CO,0.58425,Male,25,Hungary,j
1,4,8,7,7,1,0,miss,0.682835,Male,25,Hungary,j
1,4,9,7,7,1,0,miss,0.76682,Male,25,Hungary,j
1,4,10,6,7,0,1,CO,0.89955,Male,25,Hungary,j
1,4,11,6,7,1,0,miss,0.83723,Male,25,Hungary,j
1,4,12,6,7,1,0,miss,0.783485,Male,25,Hungary,j
1,4,13,5,7,0,1,CO,0.670635,Male,25,Hungary,j
1,4,14,6,7,0,1,CO,0.754345,Male,25,Hungary,j
1,4,15,7,7,1,0,miss,0.74963,Male,25,Hungary,j
1,4,16,5,7,1,1,Hit,0.7518,Male,25,Hungary,j
1,4,17,5,7,1,0,miss,0.75033,Male,25,Hungary,j
1,4,18,6,7,1,1,Hit,0.650455,Male,25,Hungary,j
1,4,19,6,7,0,1,CO,0.649905,Male,25,Hungary,j
1,4,20,6,7,0,1,CO,0.87014,Male,25,Hungary,j
1,4,21,7,7,0,1,CO,0.78347,Male,25,Hungary,j
1,4,22,5,7,1,1,Hit,0.65045,Male,25,Hungary,j
1,4,23,5,7,0,1,CO,0.59967,Male,25,Hungary,j
1,4,24,7,7,0,1,CO,0.628985,Male,25,Hungary,j
1,4,25,5,7,1,1,Hit,0.683425,Male,25,Hungary,j
1,4,26,5,7,0,1,CO,0.499605,Male,25,Hungary,j
1,4,27,7,7,1,1,Hit,0.70049,Male,25,Hungary,j
1,4,28,6,7,0,1,CO,0.69998,Male,25,Hungary,j
1,4,29,7,7,0,1,CO,0.668235,Male,25,Hungary,j
1,4,30,7,7,1,1,Hit,0.533885,Male,25,Hungary,j
1,5,1,5,7,0,1,CO,0.731805,Male,25,Hungary,j
1,5,2,7,7,1,1,Hit,1.316785,Male,25,Hungary,j
1,5,3,6,7,0,1,CO,0.567135,Male,25,Hungary,j
1,5,4,7,7,1,1,Hit,0.56952,Male,25,Hungary,j
1,5,5,6,7,1,1,Hit,0.46941,Male,25,Hungary,j
1,5,6,5,7,0,1,CO,0.93343,Male,25,Hungary,j
1,5,7,6,7,1,1,Hit,0.500435,Male,25,Hungary,j
1,5,8,6,7,1,0,miss,0.699935,Male,25,Hungary,j
1,5,9,7,7,1,0,miss,0.56767,Male,25,Hungary,j
1,5,10,7,7,0,1,CO,0.66601,Male,25,Hungary,j
1,5,11,5,7,1,1,Hit,0.53344,Male,25,Hungary,j
1,5,12,6,7,1,1,Hit,0.650115,Male,25,Hungary,j
1,5,13,7,7,1,1,Hit,0.8171,Male,25,Hungary,j
1,5,14,6,7,0,1,CO,0.60031,Male,25,Hungary,j
1,5,15,6,7,1,1,Hit,0.632475,Male,25,Hungary,j
1,5,16,5,7,0,1,CO,0.58217,Male,25,Hungary,j
1,5,17,6,7,0,1,CO,0.582075,Male,25,Hungary,j
1,5,18,5,7,1,1,Hit,0.49896,Male,25,Hungary,j
1,5,19,7,7,0,1,CO,0.518525,Male,25,Hungary,j
1,5,20,6,7,0,1,CO,0.63333,Male,25,Hungary,j
1,5,21,7,7,1,1,Hit,0.61666,Male,25,Hungary,j
1,5,22,7,7,0,1,CO,0.53416,Male,25,Hungary,j
1,5,23,7,7,0,1,CO,0.570855,Male,25,Hungary,j
1,5,24,5,7,1,1,Hit,0.62001,Male,25,Hungary,j
1,5,25,5,7,0,1,CO,0.64874,Male,25,Hungary,j
1,5,26,5,7,1,1,Hit,0.58291,Male,25,Hungary,j
1,5,27,5,7,0,1,CO,0.44987,Male,25,Hungary,j
1,5,28,6,7,0,1,CO,0.600305,Male,25,Hungary,j
1,5,29,7,7,0,1,CO,0.88353,Male,25,Hungary,j
1,5,30,5,7,1,1,Hit,0.58349,Male,25,Hungary,j
1,6,1,5,7,0,1,CO,0.516435,Male,25,Hungary,j
1,6,2,5,7,1,1,Hit,0.550455,Male,25,Hungary,j
1,6,3,7,7,1,1,Hit,0.586875,Male,25,Hungary,j
1,6,4,5,7,0,1,CO,0.48158,Male,25,Hungary,j
1,6,5,5,7,0,1,CO,0.59937,Male,25,Hungary,j
1,6,6,6,7,0,1,CO,0.566555,Male,25,Hungary,j
1,6,7,6,7,1,1,Hit,0.51626,Male,25,Hungary,j
1,6,8,6,7,0,1,CO,0.498875,Male,25,Hungary,j
1,6,9,5,7,0,1,CO,0.517285,Male,25,Hungary,j
1,6,10,7,7,0,1,CO,0.53237,Male,25,Hungary,j
1,6,11,5,7,1,1,Hit,0.750155,Male,25,Hungary,j
1,6,12,7,7,1,1,Hit,0.49997,Male,25,Hungary,j
1,6,13,7,7,1,1,Hit,0.682685,Male,25,Hungary,j
1,6,14,7,7,1,1,Hit,0.70054,Male,25,Hungary,j
1,6,15,7,7,1,1,Hit,0.76721,Male,25,Hungary,j
1,6,16,6,7,1,1,Hit,0.55288,Male,25,Hungary,j
1,6,17,5,7,1,1,Hit,0.64854,Male,25,Hungary,j
1,6,18,5,7,0,1,CO,0.45019,Male,25,Hungary,j
1,6,19,7,7,0,1,CO,0.699745,Male,25,Hungary,j
1,6,20,5,7,1,1,Hit,0.65376,Male,25,Hungary,j
1,6,21,6,7,1,1,Hit,0.834335,Male,25,Hungary,j
1,6,22,6,7,1,1,Hit,0.65034,Male,25,Hungary,j
1,6,23,6,7,1,1,Hit,0.60359,Male,25,Hungary,j
1,6,24,7,7,0,1,CO,0.583135,Male,25,Hungary,j
1,6,25,7,7,0,1,CO,0.80041,Male,25,Hungary,j
1,6,26,7,7,0,1,CO,0.565345,Male,25,Hungary,j
1,6,27,6,7,0,1,CO,0.61514,Male,25,Hungary,j
1,6,28,6,7,0,1,CO,0.519765,Male,25,Hungary,j
1,6,29,6,7,0,1,CO,0.732055,Male,25,Hungary,j
1,6,30,5,7,1,1,Hit,0.64952,Male,25,Hungary,j
1,7,1,5,0,1,0,miss,0.51676,Male,25,Hungary,j
1,7,2,6,0,0,1,CO,0.516895,Male,25,Hungary,j
1,7,3,5,0,1,1,Hit,0.53891,Male,25,Hungary,j
1,7,4,5,0,1,0,miss,0.799325,Male,25,Hungary,j
1,7,5,7,0,1,1,Hit,0.699625,Male,25,Hungary,j
1,7,6,6,0,0,1,CO,0.581515,Male,25,Hungary,j
1,7,7,5,0,0,1,CO,0.70022,Male,25,Hungary,j
1,7,8,5,0,0,1,CO,0.733145,Male,25,Hungary,j
1,7,9,6,0,1,1,Hit,0.518625,Male,25,Hungary,j
1,7,10,6,0,1,1,Hit,0.5506,Male,25,Hungary,j
1,7,11,6,0,0,1,CO,0.46794,Male,25,Hungary,j
1,7,12,7,0,1,0,miss,0.53181,Male,25,Hungary,j
1,7,13,5,0,0,1,CO,0.534165,Male,25,Hungary,j
1,7,14,7,0,0,1,CO,0.64931,Male,25,Hungary,j
1,7,15,5,0,1,1,Hit,0.582675,Male,25,Hungary,j
1,7,16,6,0,1,1,Hit,0.5838,Male,25,Hungary,j
1,7,17,7,0,0,1,CO,0.60047,Male,25,Hungary,j
1,7,18,7,0,0,1,CO,0.50188,Male,25,Hungary,j
1,7,19,7,0,1,0,miss,0.883235,Male,25,Hungary,j
1,7,20,5,0,1,1,Hit,0.63228,Male,25,Hungary,j
1,7,21,7,0,1,1,Hit,0.73294,Male,25,Hungary,j
1,7,22,5,0,0,1,CO,0.649195,Male,25,Hungary,j
1,7,23,6,0,1,1,Hit,0.566875,Male,25,Hungary,j
1,7,24,6,0,0,1,CO,0.75031,Male,25,Hungary,j
1,7,25,6,0,1,0,miss,0.532515,Male,25,Hungary,j
1,7,26,7,0,1,1,Hit,0.65061,Male,25,Hungary,j
1,7,27,5,0,0,1,CO,0.56714,Male,25,Hungary,j
1,7,28,6,0,0,1,CO,0.566215,Male,25,Hungary,j
1,7,29,7,0,0,1,CO,0.783845,Male,25,Hungary,j
1,7,30,7,0,0,1,CO,0.56801,Male,25,Hungary,j
1,8,1,7,4,0,1,CO,0.90433,Male,25,Hungary,j
1,8,2,6,4,0,1,CO,0.6178,Male,25,Hungary,j
1,8,3,6,4,1,1,Hit,0.48305,Male,25,Hungary,j
1,8,4,6,4,1,1,Hit,0.6834,Male,25,Hungary,j
1,8,5,5,4,1,1,Hit,0.71559,Male,25,Hungary,j
1,8,6,7,4,1,1,Hit,0.56708,Male,25,Hungary,j
1,8,7,5,4,0,1,CO,0.633635,Male,25,Hungary,j
1,8,8,5,4,1,1,Hit,0.568875,Male,25,Hungary,j
1,8,9,5,4,0,1,CO,0.517435,Male,25,Hungary,j
1,8,10,6,4,0,1,CO,0.48408,Male,25,Hungary,j
1,8,11,5,4,1,1,Hit,0.516675,Male,25,Hungary,j
1,8,12,5,4,1,1,Hit,0.533155,Male,25,Hungary,j
1,8,13,7,4,0,1,CO,0.500995,Male,25,Hungary,j
1,8,14,6,4,0,1,CO,0.46728,Male,25,Hungary,j
1,8,15,6,4,1,1,Hit,0.666935,Male,25,Hungary,j
1,8,16,5,4,0,1,CO,0.57027,Male,25,Hungary,j
1,8,17,5,4,1,1,Hit,0.51815,Male,25,Hungary,j
1,8,18,7,4,1,1,Hit,0.78357,Male,25,Hungary,j
1,8,19,6,4,1,1,Hit,0.64933,Male,25,Hungary,j
1,8,20,6,4,0,1,CO,0.53549,Male,25,Hungary,j
1,8,21,7,4,0,1,CO,0.61711,Male,25,Hungary,j
1,8,22,5,4,0,1,CO,0.602295,Male,25,Hungary,j
1,8,23,6,4,0,1,CO,0.78094,Male,25,Hungary,j
1,8,24,7,4,1,1,Hit,0.534805,Male,25,Hungary,j
1,8,25,7,4,1,1,Hit,0.587055,Male,25,Hungary,j
1,8,26,7,4,0,1,CO,1.099775,Male,25,Hungary,j
1,8,27,7,4,1,1,Hit,0.58948,Male,25,Hungary,j
1,8,28,5,4,0,1,CO,0.69946,Male,25,Hungary,j
1,8,29,7,4,0,1,CO,0.55451,Male,25,Hungary,j
1,8,30,6,4,1,1,Hit,0.516935,Male,25,Hungary,j
1,9,1,7,0,1,1,Hit,0.51697,Male,25,Hungary,j
1,9,2,5,0,0,1,CO,0.44966,Male,25,Hungary,j
1,9,3,7,0,0,1,CO,0.515545,Male,25,Hungary,j
1,9,4,5,0,0,1,CO,0.46553,Male,25,Hungary,j
1,9,5,6,0,1,1,Hit,0.505435,Male,25,Hungary,j
1,9,6,7,0,1,1,Hit,0.520245,Male,25,Hungary,j
1,9,7,6,0,0,1,CO,0.45144,Male,25,Hungary,j
1,9,8,5,0,0,1,CO,0.482095,Male,25,Hungary,j
1,9,9,6,0,1,0,miss,0.58706,Male,25,Hungary,j
1,9,10,7,0,1,0,miss,0.85025,Male,25,Hungary,j
1,9,11,7,0,0,1,CO,0.55008,Male,25,Hungary,j
1,9,12,5,0,1,1,Hit,0.449225,Male,25,Hungary,j
1,9,13,6,0,1,1,Hit,0.61553,Male,25,Hungary,j
1,9,14,7,0,1,1,Hit,0.617345,Male,25,Hungary,j
1,9,15,6,0,1,0,miss,0.63339,Male,25,Hungary,j
1,9,16,5,0,0,1,CO,0.50685,Male,25,Hungary,j
1,9,17,5,0,1,1,Hit,0.665835,Male,25,Hungary,j
1,9,18,6,0,0,1,CO,1.165905,Male,25,Hungary,j
1,9,19,7,0,1,1,Hit,0.63853,Male,25,Hungary,j
1,9,20,7,0,0,1,CO,0.71822,Male,25,Hungary,j
1,9,21,7,0,0,1,CO,0.817005,Male,25,Hungary,j
1,9,22,5,0,1,0,miss,0.56545,Male,25,Hungary,j
1,9,23,6,0,0,1,CO,0.700255,Male,25,Hungary,j
1,9,24,5,0,1,1,Hit,0.46691,Male,25,Hungary,j
1,9,25,7,0,0,1,CO,0.63327,Male,25,Hungary,j
1,9,26,6,0,0,1,CO,0.69938,Male,25,Hungary,j
1,9,27,5,0,0,1,CO,0.553455,Male,25,Hungary,j
1,9,28,6,0,0,1,CO,0.633165,Male,25,Hungary,j
1,9,29,5,0,1,1,Hit,0.76547,Male,25,Hungary,j
1,9,30,6,0,1,0,miss,0.71704,Male,25,Hungary,j
2,1,1,5,7,0,1,CO,0.491675,Male,26,Poland,f
2,1,2,6,7,1,1,Hit,0.579915,Male,26,Poland,f
2,1,3,7,7,0,1,CO,0.51463,Male,26,Poland,f
2,1,4,6,7,0,1,CO,0.50422,Male,26,Poland,f
2,1,5,5,7,1,1,Hit,0.594385,Male,26,Poland,f
2,1,6,6,7,1,1,Hit,0.860205,Male,26,Poland,f
2,1,7,5,7,0,1,CO,1.262185,Male,26,Poland,f
2,1,8,5,7,0,1,CO,0.74353,Male,26,Poland,f
2,1,9,7,7,0,1,CO,0.643925,Male,26,Poland,f
2,1,10,6,7,0,0,FA,0.671205,Male,26,Poland,f
2,1,11,6,7,0,0,FA,0.996855,Male,26,Poland,f
2,1,12,6,7,0,1,CO,0.79547,Male,26,Poland,f
2,1,13,7,7,1,0,miss,0.67672,Male,26,Poland,f
2,1,14,5,7,0,1,CO,0.64328,Male,26,Poland,f
2,1,15,5,7,1,1,Hit,0.45982,Male,26,Poland,f
2,1,16,6,7,0,0,FA,1.107095,Male,26,Poland,f
2,1,17,5,7,1,0,miss,1.312505,Male,26,Poland,f
2,1,18,7,7,1,0,miss,0.6013,Male,26,Poland,f
2,1,19,7,7,1,0,miss,0.71727,Male,26,Poland,f
2,1,20,7,7,1,1,Hit,0.49354,Male,26,Poland,f
2,1,21,7,7,0,1,CO,0.59137,Male,26,Poland,f
2,1,22,7,7,1,0,miss,0.62665,Male,26,Poland,f
2,1,23,5,7,0,0,FA,0.818495,Male,26,Poland,f
2,1,24,5,7,1,1,Hit,0.61172,Male,26,Poland,f
2,1,25,7,7,0,1,CO,0.744395,Male,26,Poland,f
2,1,26,7,7,0,1,CO,0.63507,Male,26,Poland,f
2,1,27,6,7,1,1,Hit,0.80132,Male,26,Poland,f
2,1,28,6,7,1,1,Hit,0.627175,Male,26,Poland,f
2,1,29,6,7,1,1,Hit,0.71772,Male,26,Poland,f
2,1,30,5,7,1,0,miss,1.08537,Male,26,Poland,f
2,2,1,5,4,1,0,miss,0.54793,Male,26,Poland,f
2,2,2,7,4,1,0,miss,0.549105,Male,26,Poland,f
2,2,3,5,4,1,1,Hit,0.557035,Male,26,Poland,f
2,2,4,7,4,1,1,Hit,0.525375,Male,26,Poland,f
2,2,5,5,4,0,1,CO,0.44178,Male,26,Poland,f
2,2,6,6,4,0,1,CO,0.55946,Male,26,Poland,f
2,2,7,6,4,0,1,CO,0.91089,Male,26,Poland,f
2,2,8,7,4,1,0,miss,0.48302,Male,26,Poland,f
2,2,9,6,4,0,1,CO,0.77228,Male,26,Poland,f
2,2,10,7,4,0,1,CO,0.419265,Male,26,Poland,f
2,2,11,6,4,1,1,Hit,0.837615,Male,26,Poland,f
2,2,12,5,4,0,1,CO,0.922235,Male,26,Poland,f
2,2,13,6,4,1,1,Hit,0.66708,Male,26,Poland,f
2,2,14,5,4,0,1,CO,0.45843,Male,26,Poland,f
2,2,15,7,4,0,1,CO,0.58133,Male,26,Poland,f
2,2,16,7,4,1,0,miss,0.47743,Male,26,Poland,f
2,2,17,7,4,0,1,CO,0.43321,Male,26,Poland,f
2,2,18,5,4,1,0,miss,0.47551,Male,26,Poland,f
2,2,19,6,4,0,1,CO,0.46042,Male,26,Poland,f
2,2,20,5,4,0,1,CO,0.492315,Male,26,Poland,f
2,2,21,7,4,0,1,CO,0.4255,Male,26,Poland,f
2,2,22,5,4,0,1,CO,0.735015,Male,26,Poland,f
2,2,23,7,4,0,1,CO,0.536495,Male,26,Poland,f
2,2,24,6,4,1,0,miss,0.55904,Male,26,Poland,f
2,2,25,5,4,1,1,Hit,0.56493,Male,26,Poland,f
2,2,26,6,4,1,1,Hit,0.603425,Male,26,Poland,f
2,2,27,5,4,1,1,Hit,0.46714,Male,26,Poland,f
2,2,28,6,4,0,1,CO,0.61697,Male,26,Poland,f
2,2,29,6,4,1,1,Hit,0.632935,Male,26,Poland,f
2,2,30,7,4,1,1,Hit,0.49987,Male,26,Poland,f
2,3,1,5,0,0,1,CO,0.627375,Male,26,Poland,f
2,3,2,6,0,1,1,Hit,0.450095,Male,26,Poland,f
2,3,3,6,0,1,1,Hit,0.591725,Male,26,Poland,f
2,3,4,6,0,1,0,miss,1.35843,Male,26,Poland,f
2,3,5,5,0,0,1,CO,0.67405,Male,26,Poland,f
2,3,6,6,0,0,1,CO,0.433355,Male,26,Poland,f
2,3,7,7,0,1,0,miss,1.014985,Male,26,Poland,f
2,3,8,7,0,0,1,CO,0.64155,Male,26,Poland,f
2,3,9,6,0,0,1,CO,0.423355,Male,26,Poland,f
2,3,10,6,0,1,0,miss,0.739985,Male,26,Poland,f
2,3,11,5,0,0,1,CO,0.46373,Male,26,Poland,f
2,3,12,7,0,0,1,CO,0.453695,Male,26,Poland,f
2,3,13,7,0,1,1,Hit,0.558915,Male,26,Poland,f
2,3,14,6,0,0,1,CO,0.997475,Male,26,Poland,f
2,3,15,5,0,1,1,Hit,0.48276,Male,26,Poland,f
2,3,16,5,0,1,1,Hit,0.59808,Male,26,Poland,f
2,3,17,6,0,0,1,CO,0.58768,Male,26,Poland,f
2,3,18,7,0,1,1,Hit,0.751235,Male,26,Poland,f
2,3,19,5,0,1,0,miss,0.93271,Male,26,Poland,f
2,3,20,5,0,0,1,CO,0.51857,Male,26,Poland,f
2,3,21,7,0,1,0,miss,1.026525,Male,26,Poland,f
2,3,22,5,0,1,1,Hit,0.42747,Male,26,Poland,f
2,3,23,5,0,1,1,Hit,0.54335,Male,26,Poland,f
2,3,24,7,0,0,1,CO,0.650255,Male,26,Poland,f
2,3,25,7,0,0,1,CO,0.526735,Male,26,Poland,f
2,3,26,7,0,1,0,miss,0.726075,Male,26,Poland,f
2,3,27,6,0,1,1,Hit,0.52607,Male,26,Poland,f
2,3,28,5,0,0,1,CO,0.76009,Male,26,Poland,f
2,3,29,6,0,0,1,CO,0.66936,Male,26,Poland,f
2,3,30,7,0,0,1,CO,0.5121,Male,26,Poland,f
2,4,1,7,4,0,1,CO,0.426455,Male,26,Poland,f
2,4,2,6,4,0,1,CO,0.44155,Male,26,Poland,f
2,4,3,6,4,1,1,Hit,0.525225,Male,26,Poland,f
2,4,4,5,4,0,1,CO,0.465565,Male,26,Poland,f
2,4,5,5,4,0,1,CO,0.49572,Male,26,Poland,f
2,4,6,5,4,1,1,Hit,0.46938,Male,26,Poland,f
2,4,7,6,4,1,1,Hit,1.21584,Male,26,Poland,f
2,4,8,6,4,0,1,CO,0.93142,Male,26,Poland,f
2,4,9,6,4,1,1,Hit,0.61384,Male,26,Poland,f
2,4,10,7,4,0,1,CO,0.642575,Male,26,Poland,f
2,4,11,6,4,1,1,Hit,0.57726,Male,26,Poland,f
2,4,12,5,4,0,1,CO,0.52926,Male,26,Poland,f
2,4,13,7,4,0,1,CO,0.52666,Male,26,Poland,f
2,4,14,5,4,1,1,Hit,0.610435,Male,26,Poland,f
2,4,15,7,4,1,1,Hit,0.660025,Male,26,Poland,f
2,4,16,5,4,0,1,CO,0.4845,Male,26,Poland,f
2,4,17,7,4,1,1,Hit,0.61987,Male,26,Poland,f
2,4,18,6,4,1,1,Hit,0.502865,Male,26,Poland,f
2,4,19,6,4,0,1,CO,0.45053,Male,26,Poland,f
2,4,20,5,4,1,1,Hit,0.544,Male,26,Poland,f
2,4,21,5,4,0,1,CO,0.69974,Male,26,Poland,f
2,4,22,7,4,1,0,miss,0.60648,Male,26,Poland,f
2,4,23,7,4,0,1,CO,0.518705,Male,26,Poland,f
2,4,24,5,4,1,1,Hit,0.47076,Male,26,Poland,f
2,4,25,6,4,0,1,CO,0.55211,Male,26,Poland,f
2,4,26,7,4,1,1,Hit,0.45975,Male,26,Poland,f
2,4,27,5,4,1,1,Hit,0.512385,Male,26,Poland,f
2,4,28,7,4,0,1,CO,1.0237,Male,26,Poland,f
2,4,29,6,4,0,1,CO,0.53503,Male,26,Poland,f
2,4,30,7,4,1,0,miss,0.57834,Male,26,Poland,f
2,5,1,7,4,0,1,CO,0.82543,Male,26,Poland,f
2,5,2,5,4,0,1,CO,0.43157,Male,26,Poland,f
2,5,3,5,4,1,0,miss,0.3986,Male,26,Poland,f
2,5,4,7,4,0,1,CO,0.458165,Male,26,Poland,f
2,5,5,6,4,0,1,CO,0.39546,Male,26,Poland,f
2,5,6,7,4,0,1,CO,0.590705,Male,26,Poland,f
2,5,7,6,4,0,1,CO,0.449155,Male,26,Poland,f
2,5,8,5,4,1,1,Hit,0.53005,Male,26,Poland,f
2,5,9,6,4,1,1,Hit,0.581445,Male,26,Poland,f
2,5,10,7,4,1,1,Hit,0.584855,Male,26,Poland,f
2,5,11,6,4,1,1,Hit,0.7615,Male,26,Poland,f
2,5,12,6,4,0,1,CO,0.485875,Male,26,Poland,f
2,5,13,5,4,0,1,CO,0.46435,Male,26,Poland,f
2,5,14,6,4,1,1,Hit,0.776395,Male,26,Poland,f
2,5,15,5,4,1,1,Hit,0.5081,Male,26,Poland,f
2,5,16,7,4,0,1,CO,0.61478,Male,26,Poland,f
2,5,17,7,4,1,0,miss,0.452635,Male,26,Poland,f
2,5,18,7,4,1,1,Hit,0.999535,Male,26,Poland,f
2,5,19,6,4,0,1,CO,0.55143,Male,26,Poland,f
2,5,20,6,4,0,1,CO,0.45205,Male,26,Poland,f
2,5,21,5,4,0,1,CO,0.575345,Male,26,Poland,f
2,5,22,5,4,0,1,CO,0.542465,Male,26,Poland,f
2,5,23,5,4,0,1,CO,0.369815,Male,26,Poland,f
2,5,24,7,4,0,1,CO,0.46043,Male,26,Poland,f
2,5,25,7,4,1,0,miss,1.23818,Male,26,Poland,f
2,5,26,5,4,1,0,miss,0.60074,Male,26,Poland,f
2,5,27,5,4,1,0,miss,0.39513,Male,26,Poland,f
2,5,28,7,4,1,0,miss,0.97703,Male,26,Poland,f
2,5,29,6,4,1,1,Hit,0.62622,Male,26,Poland,f
2,5,30,6,4,1,0,miss,0.986635,Male,26,Poland,f
2,6,1,7,0,0,1,CO,1.744365,Male,26,Poland,f
2,6,2,6,0,0,1,CO,0.384915,Male,26,Poland,f
2,6,3,6,0,1,1,Hit,0.481895,Male,26,Poland,f
2,6,4,5,0,0,1,CO,0.357115,Male,26,Poland,f
2,6,5,7,0,0,1,CO,0.40851,Male,26,Poland,f
2,6,6,7,0,1,1,Hit,0.42925,Male,26,Poland,f
2,6,7,5,0,1,1,Hit,0.71799,Male,26,Poland,f
2,6,8,7,0,0,1,CO,0.574415,Male,26,Poland,f
2,6,9,6,0,0,1,CO,0.865575,Male,26,Poland,f
2,6,10,5,0,1,1,Hit,0.647565,Male,26,Poland,f
2,6,11,5,0,1,1,Hit,0.537125,Male,26,Poland,f
2,6,12,5,0,0,1,CO,0.47731,Male,26,Poland,f
2,6,13,5,0,0,1,CO,0.431725,Male,26,Poland,f
2,6,14,7,0,0,1,CO,0.46222,Male,26,Poland,f
2,6,15,6,0,0,1,CO,0.459665,Male,26,Poland,f
2,6,16,6,0,1,1,Hit,0.642405,Male,26,Poland,f
2,6,17,7,0,0,1,CO,0.519695,Male,26,Poland,f
2,6,18,7,0,1,0,miss,0.86425,Male,26,Poland,f
2,6,19,7,0,1,0,miss,0.500205,Male,26,Poland,f
2,6,20,7,0,1,1,Hit,0.57541,Male,26,Poland,f
2,6,21,5,0,1,1,Hit,0.567875,Male,26,Poland,f
2,6,22,6,0,0,1,CO,0.748015,Male,26,Poland,f
2,6,23,5,0,0,1,CO,0.454015,Male,26,Poland,f
2,6,24,6,0,1,0,miss,0.426635,Male,26,Poland,f
2,6,25,7,0,1,0,miss,0.42785,Male,26,Poland,f
2,6,26,6,0,1,1,Hit,0.55556,Male,26,Poland,f
2,6,27,6,0,1,0,miss,0.5859,Male,26,Poland,f
2,6,28,5,0,1,1,Hit,0.576215,Male,26,Poland,f
2,6,29,6,0,0,0,FA,0.51762,Male,26,Poland,f
2,6,30,5,0,0,1,CO,0.44289,Male,26,Poland,f
2,7,1,5,7,0,1,CO,0.40162,Male,26,Poland,f
2,7,2,6,7,0,1,CO,0.375315,Male,26,Poland,f
2,7,3,7,7,0,1,CO,0.5001,Male,26,Poland,f
2,7,4,6,7,0,1,CO,0.421155,Male,26,Poland,f
2,7,5,7,7,1,1,Hit,0.596975,Male,26,Poland,f
2,7,6,7,7,0,1,CO,0.54132,Male,26,Poland,f
2,7,7,5,7,0,1,CO,0.459775,Male,26,Poland,f
2,7,8,6,7,0,1,CO,0.73505,Male,26,Poland,f
2,7,9,6,7,0,1,CO,0.44376,Male,26,Poland,f
2,7,10,6,7,1,1,Hit,0.637985,Male,26,Poland,f
2,7,11,7,7,1,0,miss,0.495095,Male,26,Poland,f
2,7,12,5,7,0,1,CO,0.504435,Male,26,Poland,f
2,7,13,6,7,0,1,CO,0.39461,Male,26,Poland,f
2,7,14,7,7,1,1,Hit,0.934875,Male,26,Poland,f
2,7,15,6,7,1,0,miss,1.35173,Male,26,Poland,f
2,7,16,5,7,1,1,Hit,0.726375,Male,26,Poland,f
2,7,17,6,7,1,1,Hit,0.87577,Male,26,Poland,f
2,7,18,5,7,0,1,CO,0.56621,Male,26,Poland,f
2,7,19,6,7,1,1,Hit,0.63431,Male,26,Poland,f
2,7,20,7,7,0,1,CO,0.637505,Male,26,Poland,f
2,7,21,6,7,1,0,miss,1.007585,Male,26,Poland,f
2,7,22,5,7,1,1,Hit,0.55209,Male,26,Poland,f
2,7,23,7,7,1,0,miss,0.64258,Male,26,Poland,f
2,7,24,5,7,1,1,Hit,0.644805,Male,26,Poland,f
2,7,25,5,7,0,1,CO,0.40898,Male,26,Poland,f
2,7,26,7,7,0,1,CO,0.545845,Male,26,Poland,f
2,7,27,5,7,1,1,Hit,0.50866,Male,26,Poland,f
2,7,28,7,7,1,0,miss,0.73237,Male,26,Poland,f
2,7,29,7,7,0,1,CO,0.56746,Male,26,Poland,f
2,7,30,5,7,1,1,Hit,0.49807,Male,26,Poland,f
2,8,1,6,0,0,1,CO,0.465715,Male,26,Poland,f
2,8,2,6,0,1,1,Hit,0.49454,Male,26,Poland,f
2,8,3,7,0,0,1,CO,0.546205,Male,26,Poland,f
2,8,4,7,0,0,1,CO,0.39961,Male,26,Poland,f
2,8,5,5,0,1,1,Hit,0.49925,Male,26,Poland,f
2,8,6,5,0,0,1,CO,0.36358,Male,26,Poland,f
2,8,7,7,0,0,1,CO,0.55873,Male,26,Poland,f
2,8,8,5,0,1,1,Hit,0.57147,Male,26,Poland,f
2,8,9,7,0,1,1,Hit,0.39249,Male,26,Poland,f
2,8,10,6,0,1,0,miss,0.495095,Male,26,Poland,f
2,8,11,7,0,1,1,Hit,0.979995,Male,26,Poland,f
2,8,12,7,0,0,1,CO,0.54922,Male,26,Poland,f
2,8,13,5,0,0,1,CO,0.403055,Male,26,Poland,f
2,8,14,7,0,0,1,CO,0.38055,Male,26,Poland,f
2,8,15,5,0,1,1,Hit,0.6372,Male,26,Poland,f
2,8,16,6,0,0,1,CO,0.643025,Male,26,Poland,f
2,8,17,6,0,1,0,miss,0.465975,Male,26,Poland,f
2,8,18,5,0,1,0,miss,0.81646,Male,26,Poland,f
2,8,19,7,0,1,1,Hit,0.506165,Male,26,Poland,f
2,8,20,7,0,1,1,Hit,0.60985,Male,26,Poland,f
2,8,21,6,0,1,1,Hit,0.51047,Male,26,Poland,f
2,8,22,5,0,0,1,CO,0.54352,Male,26,Poland,f
2,8,23,5,0,1,1,Hit,0.731665,Male,26,Poland,f
2,8,24,7,0,1,1,Hit,0.45246,Male,26,Poland,f
2,8,25,5,0,0,1,CO,0.501405,Male,26,Poland,f
2,8,26,6,0,0,1,CO,0.525865,Male,26,Poland,f
2,8,27,5,0,0,1,CO,0.501485,Male,26,Poland,f
2,8,28,6,0,1,0,miss,0.50978,Male,26,Poland,f
2,8,29,6,0,0,1,CO,0.51133,Male,26,Poland,f
2,8,30,6,0,0,1,CO,0.57596,Male,26,Poland,f
2,9,1,6,7,0,1,CO,0.51014,Male,26,Poland,f
2,9,2,7,7,0,1,CO,0.50872,Male,26,Poland,f
2,9,3,7,7,1,1,Hit,0.4766,Male,26,Poland,f
2,9,4,7,7,1,0,miss,0.61977,Male,26,Poland,f
2,9,5,5,7,1,1,Hit,0.614615,Male,26,Poland,f
2,9,6,6,7,1,1,Hit,0.56868,Male,26,Poland,f
2,9,7,6,7,1,1,Hit,0.718895,Male,26,Poland,f
2,9,8,6,7,0,1,CO,0.44748,Male,26,Poland,f
2,9,9,6,7,1,0,miss,0.89894,Male,26,Poland,f
2,9,10,6,7,0,1,CO,0.46443,Male,26,Poland,f
2,9,11,6,7,0,1,CO,0.52014,Male,26,Poland,f
2,9,12,5,7,0,1,CO,0.46212,Male,26,Poland,f
2,9,13,5,7,0,1,CO,0.44346,Male,26,Poland,f
2,9,14,5,7,1,1,Hit,0.50339,Male,26,Poland,f
2,9,15,7,7,1,1,Hit,0.530935,Male,26,Poland,f
2,9,16,5,7,1,0,miss,0.944605,Male,26,Poland,f
2,9,17,5,7,0,1,CO,0.519745,Male,26,Poland,f
2,9,18,6,7,1,1,Hit,0.425715,Male,26,Poland,f
2,9,19,7,7,0,1,CO,0.43278,Male,26,Poland,f
2,9,20,7,7,0,1,CO,0.376855,Male,26,Poland,f
2,9,21,7,7,1,0,miss,0.65829,Male,26,Poland,f
2,9,22,5,7,0,1,CO,0.45102,Male,26,Poland,f
2,9,23,5,7,1,0,miss,0.74525,Male,26,Poland,f
2,9,24,7,7,0,1,CO,0.4353,Male,26,Poland,f
2,9,25,5,7,0,1,CO,0.47474,Male,26,Poland,f
2,9,26,6,7,0,1,CO,0.57417,Male,26,Poland,f
2,9,27,7,7,1,1,Hit,0.54396,Male,26,Poland,f
2,9,28,7,7,0,1,CO,0.458475,Male,26,Poland,f
2,9,29,5,7,1,1,Hit,0.582805,Male,26,Poland,f
2,9,30,6,7,1,1,Hit,0.94666,Male,26,Poland,f
3,1,1,6,7,1,1,Hit,1.12088,Male,23,United Kingdom,f
3,1,2,6,7,0,1,CO,0.568775,Male,23,United Kingdom,f
3,1,3,7,7,0,1,CO,0.43447,Male,23,United Kingdom,f
3,1,4,5,7,1,1,Hit,0.684315,Male,23,United Kingdom,f
3,1,5,5,7,1,1,Hit,0.85302,Male,23,United Kingdom,f
3,1,6,5,7,1,1,Hit,0.7402,Male,23,United Kingdom,f
3,1,7,7,7,1,1,Hit,0.70626,Male,23,United Kingdom,f
3,1,8,7,7,0,1,CO,0.625965,Male,23,United Kingdom,f
3,1,9,7,7,1,1,Hit,1.09089,Male,23,United Kingdom,f
3,1,10,5,7,0,1,CO,0.62341,Male,23,United Kingdom,f
3,1,11,6,7,1,1,Hit,0.860675,Male,23,United Kingdom,f
3,1,12,6,7,1,0,miss,1.10299,Male,23,United Kingdom,f
3,1,13,5,7,1,1,Hit,1.414585,Male,23,United Kingdom,f
3,1,14,5,7,0,1,CO,0.852435,Male,23,United Kingdom,f
3,1,15,6,7,0,1,CO,0.66931,Male,23,United Kingdom,f
3,1,16,7,7,1,1,Hit,0.65862,Male,23,United Kingdom,f
3,1,17,6,7,1,1,Hit,0.591555,Male,23,United Kingdom,f
3,1,18,6,7,0,1,CO,0.735195,Male,23,United Kingdom,f
3,1,19,6,7,0,0,FA,0.578715,Male,23,United Kingdom,f
3,1,20,5,7,0,1,CO,0.786345,Male,23,United Kingdom,f
3,1,21,5,7,1,1,Hit,0.6347,Male,23,United Kingdom,f
3,1,22,7,7,0,1,CO,0.56825,Male,23,United Kingdom,f
3,1,23,7,7,0,1,CO,0.67593,Male,23,United Kingdom,f
3,1,24,7,7,0,1,CO,0.619635,Male,23,United Kingdom,f
3,1,25,7,7,1,1,Hit,0.51877,Male,23,United Kingdom,f
3,1,26,6,7,0,1,CO,0.60754,Male,23,United Kingdom,f
3,1,27,5,7,0,1,CO,0.469815,Male,23,United Kingdom,f
3,1,28,6,7,1,1,Hit,0.67415,Male,23,United Kingdom,f
3,1,29,7,7,1,1,Hit,1.05625,Male,23,United Kingdom,f
3,1,30,5,7,0,1,CO,0.621575,Male,23,United Kingdom,f
3,2,1,5,0,1,0,miss,0.669945,Male,23,United Kingdom,f
3,2,2,7,0,0,1,CO,0.518715,Male,23,United Kingdom,f
3,2,3,5,0,1,1,Hit,0.517705,Male,23,United Kingdom,f
3,2,4,7,0,1,0,miss,0.48558,Male,23,United Kingdom,f
3,2,5,5,0,0,1,CO,0.51757,Male,23,United Kingdom,f
3,2,6,6,0,0,1,CO,0.56813,Male,23,United Kingdom,f
3,2,7,6,0,1,1,Hit,0.436175,Male,23,United Kingdom,f
3,2,8,7,0,0,1,CO,0.690365,Male,23,United Kingdom,f
3,2,9,6,0,0,1,CO,0.484735,Male,23,United Kingdom,f
3,2,10,7,0,1,1,Hit,0.701785,Male,23,United Kingdom,f
3,2,11,6,0,0,1,CO,0.642655,Male,23,United Kingdom,f
3,2,12,6,0,1,0,miss,0.84141,Male,23,United Kingdom,f
3,2,13,7,0,1,1,Hit,0.626465,Male,23,United Kingdom,f
3,2,14,5,0,0,1,CO,0.468175,Male,23,United Kingdom,f
3,2,15,7,0,0,1,CO,0.47547,Male,23,United Kingdom,f
3,2,16,5,0,1,1,Hit,0.73648,Male,23,United Kingdom,f
3,2,17,6,0,1,1,Hit,1.09156,Male,23,United Kingdom,f
3,2,18,6,0,1,1,Hit,0.861815,Male,23,United Kingdom,f
3,2,19,7,0,1,1,Hit,0.7894,Male,23,United Kingdom,f
3,2,20,6,0,0,1,CO,0.610285,Male,23,United Kingdom,f
3,2,21,6,0,0,1,CO,0.522345,Male,23,United Kingdom,f
3,2,22,5,0,1,1,Hit,0.58565,Male,23,United Kingdom,f
3,2,23,5,0,0,1,CO,0.503895,Male,23,United Kingdom,f
3,2,24,5,0,1,1,Hit,0.78635,Male,23,United Kingdom,f
3,2,25,5,0,0,1,CO,0.60215,Male,23,United Kingdom,f
3,2,26,7,0,0,1,CO,0.95451,Male,23,United Kingdom,f
3,2,27,7,0,1,1,Hit,0.72588,Male,23,United Kingdom,f
3,2,28,6,0,1,1,Hit,0.72118,Male,23,United Kingdom,f
3,2,29,7,0,0,1,CO,0.655165,Male,23,United Kingdom,f
3,2,30,5,0,0,1,CO,0.669695,Male,23,United Kingdom,f
3,3,1,6,7,0,1,CO,0.8196,Male,23,United Kingdom,f
3,3,2,7,7,1,1,Hit,0.68331,Male,23,United Kingdom,f
3,3,3,7,7,0,1,CO,0.5502,Male,23,United Kingdom,f
3,3,4,5,7,0,1,CO,0.51058,Male,23,United Kingdom,f
3,3,5,5,7,0,1,CO,0.45244,Male,23,United Kingdom,f
3,3,6,7,7,0,1,CO,0.627635,Male,23,United Kingdom,f
3,3,7,5,7,1,1,Hit,0.63531,Male,23,United Kingdom,f
3,3,8,7,7,1,1,Hit,0.80273,Male,23,United Kingdom,f
3,3,9,5,7,0,1,CO,0.618715,Male,23,United Kingdom,f
3,3,10,6,7,0,1,CO,0.953105,Male,23,United Kingdom,f
3,3,11,6,7,1,1,Hit,0.970895,Male,23,United Kingdom,f
3,3,12,7,7,0,1,CO,0.88609,Male,23,United Kingdom,f
3,3,13,7,7,0,1,CO,0.61936,Male,23,United Kingdom,f
3,3,14,7,7,1,0,miss,1.124085,Male,23,United Kingdom,f
3,3,15,7,7,1,0,miss,0.50225,Male,23,United Kingdom,f
3,3,16,6,7,0,1,CO,0.743235,Male,23,United Kingdom,f
3,3,17,5,7,1,1,Hit,0.735865,Male,23,United Kingdom,f
3,3,18,5,7,1,1,Hit,0.689525,Male,23,United Kingdom,f
3,3,19,7,7,1,1,Hit,0.679195,Male,23,United Kingdom,f
3,3,20,6,7,0,1,CO,0.95306,Male,23,United Kingdom,f
3,3,21,6,7,0,1,CO,0.585915,Male,23,United Kingdom,f
3,3,22,6,7,1,1,Hit,0.71865,Male,23,United Kingdom,f
3,3,23,6,7,1,1,Hit,0.801515,Male,23,United Kingdom,f
3,3,24,5,7,0,1,CO,0.622535,Male,23,United Kingdom,f
3,3,25,5,7,1,1,Hit,1.07019,Male,23,United Kingdom,f
3,3,26,6,7,1,1,Hit,0.691545,Male,23,United Kingdom,f
3,3,27,5,7,1,1,Hit,0.582655,Male,23,United Kingdom,f
3,3,28,6,7,1,1,Hit,0.5849,Male,23,United Kingdom,f
3,3,29,7,7,0,1,CO,0.686185,Male,23,United Kingdom,f
3,3,30,5,7,0,1,CO,0.72112,Male,23,United Kingdom,f
3,4,1,6,0,0,1,CO,0.46864,Male,23,United Kingdom,f
3,4,2,6,0,1,1,Hit,0.543285,Male,23,United Kingdom,f
3,4,3,7,0,1,1,Hit,0.63561,Male,23,United Kingdom,f
3,4,4,5,0,1,0,miss,0.97649,Male,23,United Kingdom,f
3,4,5,5,0,1,1,Hit,0.922225,Male,23,United Kingdom,f
3,4,6,5,0,0,1,CO,0.53521,Male,23,United Kingdom,f
3,4,7,7,0,1,1,Hit,0.685825,Male,23,United Kingdom,f
3,4,8,7,0,1,1,Hit,1.06026,Male,23,United Kingdom,f
3,4,9,6,0,0,1,CO,1.325155,Male,23,United Kingdom,f
3,4,10,5,0,0,1,CO,0.71011,Male,23,United Kingdom,f
3,4,11,7,0,0,1,CO,0.639095,Male,23,United Kingdom,f
3,4,12,5,0,0,1,CO,0.435805,Male,23,United Kingdom,f
3,4,13,5,0,0,1,CO,0.5216,Male,23,United Kingdom,f
3,4,14,6,0,1,1,Hit,0.66762,Male,23,United Kingdom,f
3,4,15,7,0,0,1,CO,0.40237,Male,23,United Kingdom,f
3,4,16,6,0,1,0,miss,1.037615,Male,23,United Kingdom,f
3,4,17,5,0,0,1,CO,0.59291,Male,23,United Kingdom,f
3,4,18,7,0,1,1,Hit,0.584895,Male,23,United Kingdom,f
3,4,19,7,0,0,1,CO,0.786355,Male,23,United Kingdom,f
3,4,20,5,0,1,1,Hit,0.752595,Male,23,United Kingdom,f
3,4,21,7,0,0,1,CO,0.809555,Male,23,United Kingdom,f
3,4,22,6,0,0,1,CO,0.601305,Male,23,United Kingdom,f
3,4,23,6,0,0,1,CO,0.606065,Male,23,United Kingdom,f
3,4,24,7,0,1,1,Hit,0.736455,Male,23,United Kingdom,f
3,4,25,6,0,1,0,miss,0.787675,Male,23,United Kingdom,f
3,4,26,7,0,0,1,CO,0.552215,Male,23,United Kingdom,f
3,4,27,6,0,0,1,CO,0.672465,Male,23,United Kingdom,f
3,4,28,5,0,1,1,Hit,1.120185,Male,23,United Kingdom,f
3,4,29,6,0,1,1,Hit,0.65974,Male,23,United Kingdom,f
3,4,30,5,0,1,1,Hit,1.33978,Male,23,United Kingdom,f
3,5,1,7,4,1,1,Hit,1.1228,Male,23,United Kingdom,f
3,5,2,5,4,1,0,miss,1.2041,Male,23,United Kingdom,f
3,5,3,7,4,1,0,miss,0.61778,Male,23,United Kingdom,f
3,5,4,7,4,0,0,FA,0.57641,Male,23,United Kingdom,f
3,5,5,5,4,1,1,Hit,0.75119,Male,23,United Kingdom,f
3,5,6,7,4,1,0,miss,0.60802,Male,23,United Kingdom,f
3,5,7,5,4,0,1,CO,0.869675,Male,23,United Kingdom,f
3,5,8,6,4,0,1,CO,1.507665,Male,23,United Kingdom,f
3,5,9,7,4,0,1,CO,1.287775,Male,23,United Kingdom,f
3,5,10,7,4,1,1,Hit,0.770895,Male,23,United Kingdom,f
3,5,11,6,4,1,1,Hit,0.654755,Male,23,United Kingdom,f
3,5,12,5,4,1,1,Hit,0.717945,Male,23,United Kingdom,f
3,5,13,7,4,0,1,CO,0.6613,Male,23,United Kingdom,f
3,5,14,7,4,0,1,CO,0.552215,Male,23,United Kingdom,f
3,5,15,7,4,1,1,Hit,0.885915,Male,23,United Kingdom,f
3,5,16,6,4,0,1,CO,0.81978,Male,23,United Kingdom,f
3,5,17,5,4,1,0,miss,0.803955,Male,23,United Kingdom,f
3,5,18,6,4,1,0,miss,0.668905,Male,23,United Kingdom,f
3,5,19,6,4,0,1,CO,0.502285,Male,23,United Kingdom,f
3,5,20,5,4,0,1,CO,0.56924,Male,23,United Kingdom,f
3,5,21,6,4,0,1,CO,0.450185,Male,23,United Kingdom,f
3,5,22,5,4,0,1,CO,0.493715,Male,23,United Kingdom,f
3,5,23,5,4,0,1,CO,0.439905,Male,23,United Kingdom,f
3,5,24,6,4,1,1,Hit,1.090115,Male,23,United Kingdom,f
3,5,25,7,4,0,1,CO,0.58555,Male,23,United Kingdom,f
3,5,26,6,4,0,1,CO,0.637035,Male,23,United Kingdom,f
3,5,27,5,4,1,1,Hit,0.65692,Male,23,United Kingdom,f
3,5,28,5,4,0,1,CO,0.50213,Male,23,United Kingdom,f
3,5,29,6,4,1,1,Hit,0.555535,Male,23,United Kingdom,f
3,5,30,6,4,1,1,Hit,0.719955,Male,23,United Kingdom,f
3,6,1,7,4,0,1,CO,1.253705,Male,23,United Kingdom,f
3,6,2,5,4,0,1,CO,0.484955,Male,23,United Kingdom,f
3,6,3,5,4,1,1,Hit,0.53735,Male,23,United Kingdom,f
3,6,4,7,4,1,1,Hit,0.85759,Male,23,United Kingdom,f
3,6,5,5,4,0,1,CO,0.61902,Male,23,United Kingdom,f
3,6,6,5,4,1,1,Hit,0.485465,Male,23,United Kingdom,f
3,6,7,6,4,0,1,CO,0.620635,Male,23,United Kingdom,f
3,6,8,5,4,0,1,CO,0.519165,Male,23,United Kingdom,f
3,6,9,7,4,0,1,CO,0.59094,Male,23,United Kingdom,f
3,6,10,6,4,1,1,Hit,0.55688,Male,23,United Kingdom,f
3,6,11,5,4,0,1,CO,0.6691,Male,23,United Kingdom,f
3,6,12,6,4,0,1,CO,0.602675,Male,23,United Kingdom,f
3,6,13,7,4,1,1,Hit,0.624515,Male,23,United Kingdom,f
3,6,14,7,4,1,1,Hit,1.391485,Male,23,United Kingdom,f
3,6,15,6,4,0,1,CO,0.65179,Male,23,United Kingdom,f
3,6,16,7,4,0,1,CO,0.518485,Male,23,United Kingdom,f
3,6,17,7,4,0,1,CO,0.56892,Male,23,United Kingdom,f
3,6,18,7,4,1,0,miss,1.22224,Male,23,United Kingdom,f
3,6,19,6,4,1,1,Hit,0.70334,Male,23,United Kingdom,f
3,6,20,5,4,1,1,Hit,0.67514,Male,23,United Kingdom,f
3,6,21,5,4,0,1,CO,0.629475,Male,23,United Kingdom,f
3,6,22,7,4,1,1,Hit,0.853095,Male,23,United Kingdom,f
3,6,23,5,4,1,1,Hit,0.72772,Male,23,United Kingdom,f
3,6,24,6,4,0,1,CO,0.59347,Male,23,United Kingdom,f
3,6,25,6,4,1,1,Hit,0.87039,Male,23,United Kingdom,f
3,6,26,7,4,0,1,CO,0.685995,Male,23,United Kingdom,f
3,6,27,6,4,0,1,CO,1.21991,Male,23,United Kingdom,f
3,6,28,5,4,1,1,Hit,0.78491,Male,23,United Kingdom,f
3,6,29,6,4,1,1,Hit,0.718255,Male,23,United Kingdom,f
3,6,30,6,4,1,1,Hit,0.96003,Male,23,United Kingdom,f
3,7,1,6,7,0,1,CO,0.584305,Male,23,United Kingdom,f
3,7,2,6,7,0,1,CO,0.433885,Male,23,United Kingdom,f
3,7,3,6,7,0,1,CO,0.477675,Male,23,United Kingdom,f
3,7,4,5,7,1,1,Hit,0.5918,Male,23,United Kingdom,f
3,7,5,7,7,1,1,Hit,0.488255,Male,23,United Kingdom,f
3,7,6,6,7,0,1,CO,0.55498,Male,23,United Kingdom,f
3,7,7,7,7,0,1,CO,0.51878,Male,23,United Kingdom,f
3,7,8,7,7,1,1,Hit,0.45416,Male,23,United Kingdom,f
3,7,9,6,7,1,1,Hit,0.818545,Male,23,United Kingdom,f
3,7,10,7,7,0,1,CO,0.485145,Male,23,United Kingdom,f
3,7,11,5,7,1,1,Hit,0.627855,Male,23,United Kingdom,f
3,7,12,5,7,1,1,Hit,0.62107,Male,23,United Kingdom,f
3,7,13,7,7,1,0,miss,0.509285,Male,23,United Kingdom,f
3,7,14,5,7,1,1,Hit,0.75325,Male,23,United Kingdom,f
3,7,15,6,7,0,0,FA,0.61879,Male,23,United Kingdom,f
3,7,16,5,7,0,1,CO,0.702655,Male,23,United Kingdom,f
3,7,17,7,7,1,1,Hit,0.65153,Male,23,United Kingdom,f
3,7,18,5,7,0,1,CO,0.68832,Male,23,United Kingdom,f
3,7,19,5,7,0,1,CO,0.50679,Male,23,United Kingdom,f
3,7,20,7,7,1,1,Hit,0.63473,Male,23,United Kingdom,f
3,7,21,5,7,0,1,CO,0.591925,Male,23,United Kingdom,f
3,7,22,5,7,0,1,CO,0.451715,Male,23,United Kingdom,f
3,7,23,6,7,1,1,Hit,1.656235,Male,23,United Kingdom,f
3,7,24,6,7,1,1,Hit,0.717515,Male,23,United Kingdom,f
3,7,25,7,7,0,1,CO,0.55296,Male,23,United Kingdom,f
3,7,26,7,7,0,1,CO,0.485095,Male,23,United Kingdom,f
3,7,27,5,7,1,1,Hit,0.76197,Male,23,United Kingdom,f
3,7,28,6,7,1,1,Hit,0.754775,Male,23,United Kingdom,f
3,7,29,7,7,0,1,CO,0.605445,Male,23,United Kingdom,f
3,7,30,6,7,1,0,miss,1.097395,Male,23,United Kingdom,f
3,8,1,6,0,1,1,Hit,0.645415,Male,23,United Kingdom,f
3,8,2,7,0,0,1,CO,0.60178,Male,23,United Kingdom,f
3,8,3,5,0,1,1,Hit,0.625025,Male,23,United Kingdom,f
3,8,4,6,0,0,1,CO,0.6684,Male,23,United Kingdom,f
3,8,5,5,0,0,1,CO,1.0203,Male,23,United Kingdom,f
3,8,6,7,0,0,1,CO,0.57378,Male,23,United Kingdom,f
3,8,7,7,0,0,1,CO,0.967865,Male,23,United Kingdom,f
3,8,8,6,0,1,1,Hit,0.97845,Male,23,United Kingdom,f
3,8,9,5,0,1,1,Hit,0.956035,Male,23,United Kingdom,f
3,8,10,5,0,1,0,miss,0.650935,Male,23,United Kingdom,f
3,8,11,5,0,0,1,CO,0.477325,Male,23,United Kingdom,f
3,8,12,7,0,0,1,CO,0.441335,Male,23,United Kingdom,f
3,8,13,7,0,1,1,Hit,0.617505,Male,23,United Kingdom,f
3,8,14,7,0,1,1,Hit,0.72117,Male,23,United Kingdom,f
3,8,15,6,0,0,1,CO,0.69049,Male,23,United Kingdom,f
3,8,16,6,0,0,1,CO,0.55512,Male,23,United Kingdom,f
3,8,17,7,0,0,1,CO,0.76684,Male,23,United Kingdom,f
3,8,18,6,0,0,1,CO,0.66778,Male,23,United Kingdom,f
3,8,19,7,0,1,0,miss,0.703115,Male,23,United Kingdom,f
3,8,20,5,0,0,1,CO,0.48408,Male,23,United Kingdom,f
3,8,21,5,0,0,1,CO,0.483705,Male,23,United Kingdom,f
3,8,22,6,0,1,1,Hit,1.29109,Male,23,United Kingdom,f
3,8,23,6,0,1,1,Hit,0.723155,Male,23,United Kingdom,f
3,8,24,7,0,1,1,Hit,0.80284,Male,23,United Kingdom,f
3,8,25,6,0,1,0,miss,0.644975,Male,23,United Kingdom,f
3,8,26,7,0,1,1,Hit,0.81985,Male,23,United Kingdom,f
3,8,27,6,0,0,1,CO,0.603225,Male,23,United Kingdom,f
3,8,28,5,0,0,1,CO,1.203125,Male,23,United Kingdom,f
3,8,29,5,0,1,1,Hit,0.539535,Male,23,United Kingdom,f
3,8,30,5,0,1,1,Hit,1.52136,Male,23,United Kingdom,f
3,9,1,5,4,0,1,CO,0.585405,Male,23,United Kingdom,f
3,9,2,7,4,0,1,CO,0.451885,Male,23,United Kingdom,f
3,9,3,6,4,1,1,Hit,0.822675,Male,23,United Kingdom,f
3,9,4,7,4,1,1,Hit,0.85118,Male,23,United Kingdom,f
3,9,5,7,4,0,1,CO,0.55131,Male,23,United Kingdom,f
3,9,6,7,4,1,1,Hit,0.72763,Male,23,United Kingdom,f
3,9,7,6,4,0,1,CO,0.608625,Male,23,United Kingdom,f
3,9,8,5,4,1,1,Hit,0.753055,Male,23,United Kingdom,f
3,9,9,6,4,0,1,CO,0.57296,Male,23,United Kingdom,f
3,9,10,7,4,1,1,Hit,0.735665,Male,23,United Kingdom,f
3,9,11,6,4,1,1,Hit,0.669665,Male,23,United Kingdom,f
3,9,12,5,4,1,1,Hit,0.635305,Male,23,United Kingdom,f
3,9,13,6,4,1,1,Hit,0.65279,Male,23,United Kingdom,f
3,9,14,7,4,1,1,Hit,0.6019,Male,23,United Kingdom,f
3,9,15,5,4,1,1,Hit,0.551675,Male,23,United Kingdom,f
3,9,16,5,4,1,1,Hit,0.88641,Male,23,United Kingdom,f
3,9,17,5,4,0,1,CO,0.552085,Male,23,United Kingdom,f
3,9,18,6,4,1,1,Hit,0.58718,Male,23,United Kingdom,f
3,9,19,7,4,0,1,CO,0.621215,Male,23,United Kingdom,f
3,9,20,7,4,0,1,CO,0.577235,Male,23,United Kingdom,f
3,9,21,7,4,1,1,Hit,0.690455,Male,23,United Kingdom,f
3,9,22,5,4,0,1,CO,0.57255,Male,23,United Kingdom,f
3,9,23,5,4,1,0,miss,0.65241,Male,23,United Kingdom,f
3,9,24,6,4,0,1,CO,0.57261,Male,23,United Kingdom,f
3,9,25,6,4,1,1,Hit,0.55655,Male,23,United Kingdom,f
3,9,26,5,4,0,1,CO,0.694095,Male,23,United Kingdom,f
3,9,27,7,4,0,1,CO,0.693415,Male,23,United Kingdom,f
3,9,28,6,4,0,1,CO,0.5727,Male,23,United Kingdom,f
3,9,29,5,4,0,1,CO,0.586775,Male,23,United Kingdom,f
3,9,30,6,4,0,1,CO,0.592885,Male,23,United Kingdom,f
4,1,1,6,7,1,1,Hit,0.94261,Male,21,Portugal,f
4,1,2,7,7,1,1,Hit,0.653605,Male,21,Portugal,f
4,1,3,7,7,1,1,Hit,0.86229,Male,21,Portugal,f
4,1,4,7,7,0,1,CO,0.904365,Male,21,Portugal,f
4,1,5,6,7,0,1,CO,0.673095,Male,21,Portugal,f
4,1,6,7,7,1,1,Hit,0.910735,Male,21,Portugal,f
4,1,7,6,7,1,1,Hit,0.759075,Male,21,Portugal,f
4,1,8,5,7,0,1,CO,0.66955,Male,21,Portugal,f
4,1,9,6,7,0,1,CO,0.770665,Male,21,Portugal,f
4,1,10,5,7,0,1,CO,0.65394,Male,21,Portugal,f
4,1,11,6,7,0,1,CO,0.735995,Male,21,Portugal,f
4,1,12,7,7,0,1,CO,0.71197,Male,21,Portugal,f
4,1,13,5,7,0,1,CO,0.76362,Male,21,Portugal,f
4,1,14,7,7,0,1,CO,1.10472,Male,21,Portugal,f
4,1,15,6,7,1,1,Hit,0.788115,Male,21,Portugal,f
4,1,16,7,7,1,1,Hit,0.94501,Male,21,Portugal,f
4,1,17,5,7,1,1,Hit,1.018685,Male,21,Portugal,f
4,1,18,7,7,0,1,CO,1.121985,Male,21,Portugal,f
4,1,19,5,7,1,0,miss,1.20264,Male,21,Portugal,f
4,1,20,6,7,0,1,CO,0.80432,Male,21,Portugal,f
4,1,21,6,7,0,1,CO,0.675755,Male,21,Portugal,f
4,1,22,7,7,0,1,CO,0.8111,Male,21,Portugal,f
4,1,23,7,7,1,1,Hit,0.826775,Male,21,Portugal,f
4,1,24,5,7,0,1,CO,0.654045,Male,21,Portugal,f
4,1,25,5,7,0,1,CO,0.73983,Male,21,Portugal,f
4,1,26,6,7,1,1,Hit,0.85548,Male,21,Portugal,f
4,1,27,5,7,1,1,Hit,0.756975,Male,21,Portugal,f
4,1,28,5,7,1,0,miss,0.673525,Male,21,Portugal,f
4,1,29,5,7,1,1,Hit,0.872835,Male,21,Portugal,f
4,1,30,6,7,1,1,Hit,0.737105,Male,21,Portugal,f
4,2,1,5,7,0,1,CO,0.939015,Male,21,Portugal,f
4,2,2,7,7,0,1,CO,0.921105,Male,21,Portugal,f
4,2,3,5,7,1,1,Hit,0.581905,Male,21,Portugal,f
4,2,4,6,7,0,1,CO,0.61384,Male,21,Portugal,f
4,2,5,6,7,0,1,CO,0.712085,Male,21,Portugal,f
4,2,6,5,7,1,1,Hit,0.6376,Male,21,Portugal,f
4,2,7,7,7,1,1,Hit,0.99008,Male,21,Portugal,f
4,2,8,7,7,1,1,Hit,1.362565,Male,21,Portugal,f
4,2,9,7,7,1,0,miss,0.810155,Male,21,Portugal,f
4,2,10,7,7,0,1,CO,0.954845,Male,21,Portugal,f
4,2,11,5,7,1,0,miss,0.738255,Male,21,Portugal,f
4,2,12,7,7,0,0,FA,1.01059,Male,21,Portugal,f
4,2,13,7,7,0,1,CO,1.23709,Male,21,Portugal,f
4,2,14,6,7,0,1,CO,0.82399,Male,21,Portugal,f
4,2,15,6,7,1,0,miss,0.62178,Male,21,Portugal,f
4,2,16,6,7,1,1,Hit,0.76251,Male,21,Portugal,f
4,2,17,5,7,1,1,Hit,0.758275,Male,21,Portugal,f
4,2,18,5,7,1,1,Hit,0.754355,Male,21,Portugal,f
4,2,19,7,7,1,0,miss,1.07059,Male,21,Portugal,f
4,2,20,5,7,0,1,CO,0.96184,Male,21,Portugal,f
4,2,21,6,7,1,1,Hit,0.68682,Male,21,Portugal,f
4,2,22,7,7,0,1,CO,0.52555,Male,21,Portugal,f
4,2,23,5,7,0,1,CO,0.693545,Male,21,Portugal,f
4,2,24,5,7,0,1,CO,0.592455,Male,21,Portugal,f
4,2,25,6,7,1,1,Hit,0.63892,Male,21,Portugal,f
4,2,26,6,7,1,1,Hit,0.886175,Male,21,Portugal,f
4,2,27,7,7,1,1,Hit,0.81989,Male,21,Portugal,f
4,2,28,6,7,0,1,CO,0.560945,Male,21,Portugal,f
4,2,29,6,7,0,1,CO,0.56433,Male,21,Portugal,f
4,2,30,5,7,0,1,CO,0.57202,Male,21,Portugal,f
4,3,1,5,4,1,1,Hit,0.74032,Male,21,Portugal,f
4,3,2,5,4,0,1,CO,0.49623,Male,21,Portugal,f
4,3,3,7,4,1,0,miss,0.60439,Male,21,Portugal,f
4,3,4,5,4,0,1,CO,0.47778,Male,21,Portugal,f
4,3,5,7,4,0,0,FA,0.48726,Male,21,Portugal,f
4,3,6,6,4,1,1,Hit,0.73193,Male,21,Portugal,f
4,3,7,7,4,0,1,CO,0.553985,Male,21,Portugal,f
4,3,8,6,4,0,1,CO,0.591735,Male,21,Portugal,f
4,3,9,5,4,1,1,Hit,0.661355,Male,21,Portugal,f
4,3,10,5,4,0,1,CO,0.520795,Male,21,Portugal,f
4,3,11,6,4,1,0,miss,0.458995,Male,21,Portugal,f
4,3,12,6,4,0,1,CO,0.596785,Male,21,Portugal,f
4,3,13,5,4,0,1,CO,0.60504,Male,21,Portugal,f
4,3,14,7,4,1,1,Hit,0.62162,Male,21,Portugal,f
4,3,15,5,4,1,1,Hit,0.60823,Male,21,Portugal,f
4,3,16,5,4,0,1,CO,0.570025,Male,21,Portugal,f
4,3,17,6,4,0,1,CO,0.746905,Male,21,Portugal,f
4,3,18,7,4,0,1,CO,0.877465,Male,21,Portugal,f
4,3,19,5,4,1,1,Hit,0.986185,Male,21,Portugal,f
4,3,20,5,4,1,1,Hit,1.006405,Male,21,Portugal,f
4,3,21,6,4,0,1,CO,0.94275,Male,21,Portugal,f
4,3,22,6,4,1,1,Hit,0.92095,Male,21,Portugal,f
4,3,23,7,4,1,0,miss,0.625645,Male,21,Portugal,f
4,3,24,7,4,0,1,CO,0.506805,Male,21,Portugal,f
4,3,25,7,4,0,1,CO,0.56919,Male,21,Portugal,f
4,3,26,6,4,0,1,CO,0.675785,Male,21,Portugal,f
4,3,27,6,4,1,0,miss,0.56421,Male,21,Portugal,f
4,3,28,7,4,1,1,Hit,0.571955,Male,21,Portugal,f
4,3,29,6,4,1,0,miss,0.589475,Male,21,Portugal,f
4,3,30,7,4,1,1,Hit,0.605395,Male,21,Portugal,f
4,4,1,6,0,0,1,CO,0.820275,Male,21,Portugal,f
4,4,2,5,0,1,0,miss,1.15527,Male,21,Portugal,f
4,4,3,6,0,1,0,miss,0.620855,Male,21,Portugal,f
4,4,4,7,0,1,0,miss,0.70809,Male,21,Portugal,f
4,4,5,7,0,1,0,miss,0.67497,Male,21,Portugal,f
4,4,6,6,0,0,1,CO,0.57165,Male,21,Portugal,f
4,4,7,7,0,0,1,CO,0.697055,Male,21,Portugal,f
4,4,8,7,0,1,1,Hit,0.570585,Male,21,Portugal,f
4,4,9,7,0,0,0,FA,0.912915,Male,21,Portugal,f
4,4,10,6,0,1,0,miss,0.9384,Male,21,Portugal,f
4,4,11,7,0,0,1,CO,0.77937,Male,21,Portugal,f
4,4,12,7,0,0,1,CO,0.65843,Male,21,Portugal,f
4,4,13,5,0,0,1,CO,0.608245,Male,21,Portugal,f
4,4,14,7,0,1,1,Hit,1.329345,Male,21,Portugal,f
4,4,15,6,0,1,1,Hit,0.73798,Male,21,Portugal,f
4,4,16,6,0,1,1,Hit,0.799065,Male,21,Portugal,f
4,4,17,5,0,1,1,Hit,0.686865,Male,21,Portugal,f
4,4,18,5,0,1,1,Hit,0.69185,Male,21,Portugal,f
4,4,19,6,0,0,1,CO,0.554865,Male,21,Portugal,f
4,4,20,5,0,0,1,CO,0.698295,Male,21,Portugal,f
4,4,21,5,0,0,1,CO,0.558185,Male,21,Portugal,f
4,4,22,6,0,1,0,miss,0.474375,Male,21,Portugal,f
4,4,23,5,0,1,1,Hit,1.004035,Male,21,Portugal,f
4,4,24,7,0,1,1,Hit,0.63956,Male,21,Portugal,f
4,4,25,5,0,0,1,CO,0.52051,Male,21,Portugal,f
4,4,26,5,0,1,1,Hit,0.560035,Male,21,Portugal,f
4,4,27,7,0,0,1,CO,0.54644,Male,21,Portugal,f
4,4,28,6,0,0,1,CO,0.654705,Male,21,Portugal,f
4,4,29,6,0,0,1,CO,0.690545,Male,21,Portugal,f
4,4,30,5,0,0,1,CO,0.619935,Male,21,Portugal,f
4,5,1,6,0,1,1,Hit,0.720375,Male,21,Portugal,f
4,5,2,6,0,0,1,CO,0.6382,Male,21,Portugal,f
4,5,3,6,0,1,1,Hit,0.586095,Male,21,Portugal,f
4,5,4,7,0,1,1,Hit,0.744715,Male,21,Portugal,f
4,5,5,5,0,0,1,CO,0.49282,Male,21,Portugal,f
4,5,6,7,0,1,0,miss,0.47981,Male,21,Portugal,f
4,5,7,5,0,0,1,CO,0.51183,Male,21,Portugal,f
4,5,8,5,0,1,1,Hit,0.574835,Male,21,Portugal,f
4,5,9,5,0,1,1,Hit,0.679355,Male,21,Portugal,f
4,5,10,6,0,1,1,Hit,0.553885,Male,21,Portugal,f
4,5,11,7,0,0,1,CO,0.586415,Male,21,Portugal,f
4,5,12,7,0,1,1,Hit,0.721555,Male,21,Portugal,f
4,5,13,7,0,0,1,CO,0.54375,Male,21,Portugal,f
4,5,14,6,0,1,1,Hit,0.73039,Male,21,Portugal,f
4,5,15,5,0,0,1,CO,0.77196,Male,21,Portugal,f
4,5,16,6,0,1,0,miss,0.65793,Male,21,Portugal,f
4,5,17,5,0,1,1,Hit,0.554485,Male,21,Portugal,f
4,5,18,5,0,0,1,CO,0.64676,Male,21,Portugal,f
4,5,19,6,0,0,1,CO,0.55794,Male,21,Portugal,f
4,5,20,7,0,1,1,Hit,0.622365,Male,21,Portugal,f
4,5,21,5,0,0,1,CO,0.437175,Male,21,Portugal,f
4,5,22,6,0,0,1,CO,0.6108,Male,21,Portugal,f
4,5,23,7,0,0,1,CO,0.46214,Male,21,Portugal,f
4,5,24,6,0,0,1,CO,0.41543,Male,21,Portugal,f
4,5,25,7,0,0,1,CO,0.43774,Male,21,Portugal,f
4,5,26,7,0,0,1,CO,0.538945,Male,21,Portugal,f
4,5,27,6,0,0,1,CO,0.457025,Male,21,Portugal,f
4,5,28,7,0,1,0,miss,0.625025,Male,21,Portugal,f
4,5,29,5,0,1,0,miss,0.508465,Male,21,Portugal,f
4,5,30,5,0,1,1,Hit,0.654045,Male,21,Portugal,f
4,6,1,5,0,0,1,CO,0.662365,Male,21,Portugal,f
4,6,2,5,0,1,1,Hit,0.690825,Male,21,Portugal,f
4,6,3,5,0,1,1,Hit,0.598,Male,21,Portugal,f
4,6,4,6,0,0,1,CO,0.425375,Male,21,Portugal,f
4,6,5,6,0,1,1,Hit,0.50798,Male,21,Portugal,f
4,6,6,6,0,0,1,CO,0.42833,Male,21,Portugal,f
4,6,7,6,0,0,1,CO,0.432845,Male,21,Portugal,f
4,6,8,7,0,0,1,CO,0.52856,Male,21,Portugal,f
4,6,9,5,0,0,1,CO,0.4381,Male,21,Portugal,f
4,6,10,7,0,0,1,CO,0.457355,Male,21,Portugal,f
4,6,11,5,0,1,1,Hit,0.590105,Male,21,Portugal,f
4,6,12,5,0,0,1,CO,0.47918,Male,21,Portugal,f
4,6,13,6,0,1,1,Hit,0.49125,Male,21,Portugal,f
4,6,14,6,0,1,0,miss,0.44089,Male,21,Portugal,f
4,6,15,6,0,0,1,CO,0.77181,Male,21,Portugal,f
4,6,16,5,0,1,1,Hit,0.523465,Male,21,Portugal,f
4,6,17,6,0,1,1,Hit,0.744195,Male,21,Portugal,f
4,6,18,7,0,1,0,miss,0.5948,Male,21,Portugal,f
4,6,19,5,0,0,1,CO,0.430115,Male,21,Portugal,f
4,6,20,7,0,1,1,Hit,0.477145,Male,21,Portugal,f
4,6,21,5,0,1,0,miss,0.404165,Male,21,Portugal,f
4,6,22,7,0,1,0,miss,0.476355,Male,21,Portugal,f
4,6,23,7,0,1,1,Hit,0.5936,Male,21,Portugal,f
4,6,24,7,0,1,1,Hit,0.79732,Male,21,Portugal,f
4,6,25,7,0,0,1,CO,0.49274,Male,21,Portugal,f
4,6,26,6,0,1,0,miss,0.45653,Male,21,Portugal,f
4,6,27,7,0,0,1,CO,0.47141,Male,21,Portugal,f
4,6,28,6,0,0,1,CO,0.54607,Male,21,Portugal,f
4,6,29,7,0,0,1,CO,0.64177,Male,21,Portugal,f
4,6,30,5,0,0,1,CO,0.604075,Male,21,Portugal,f
4,7,1,7,4,0,1,CO,1.039445,Male,21,Portugal,f
4,7,2,5,4,0,1,CO,0.504085,Male,21,Portugal,f
4,7,3,5,4,0,1,CO,0.70514,Male,21,Portugal,f
4,7,4,5,4,0,1,CO,0.615655,Male,21,Portugal,f
4,7,5,6,4,1,1,Hit,0.947555,Male,21,Portugal,f
4,7,6,6,4,1,1,Hit,0.623125,Male,21,Portugal,f
4,7,7,5,4,1,1,Hit,0.629275,Male,21,Portugal,f
4,7,8,7,4,0,1,CO,1.158805,Male,21,Portugal,f
4,7,9,5,4,0,1,CO,0.637275,Male,21,Portugal,f
4,7,10,7,4,1,1,Hit,0.637825,Male,21,Portugal,f
4,7,11,6,4,1,1,Hit,0.63917,Male,21,Portugal,f
4,7,12,5,4,1,1,Hit,0.891645,Male,21,Portugal,f
4,7,13,6,4,0,1,CO,0.628,Male,21,Portugal,f
4,7,14,7,4,0,0,FA,0.69594,Male,21,Portugal,f
4,7,15,5,4,1,1,Hit,0.98846,Male,21,Portugal,f
4,7,16,6,4,1,0,miss,0.55752,Male,21,Portugal,f
4,7,17,5,4,1,1,Hit,0.627115,Male,21,Portugal,f
4,7,18,7,4,1,1,Hit,0.92114,Male,21,Portugal,f
4,7,19,7,4,1,0,miss,0.45708,Male,21,Portugal,f
4,7,20,5,4,1,1,Hit,0.57512,Male,21,Portugal,f
4,7,21,7,4,0,1,CO,0.44337,Male,21,Portugal,f
4,7,22,7,4,0,1,CO,0.66216,Male,21,Portugal,f
4,7,23,7,4,1,0,miss,0.50429,Male,21,Portugal,f
4,7,24,6,4,0,0,FA,0.60745,Male,21,Portugal,f
4,7,25,6,4,0,1,CO,0.42907,Male,21,Portugal,f
4,7,26,6,4,0,1,CO,0.42701,Male,21,Portugal,f
4,7,27,6,4,1,0,miss,0.598995,Male,21,Portugal,f
4,7,28,6,4,0,1,CO,0.47203,Male,21,Portugal,f
4,7,29,5,4,0,1,CO,0.449045,Male,21,Portugal,f
4,7,30,7,4,1,0,miss,0.397145,Male,21,Portugal,f
4,8,1,6,7,1,0,miss,0.978585,Male,21,Portugal,f
4,8,2,7,7,1,1,Hit,0.58723,Male,21,Portugal,f
4,8,3,5,7,0,1,CO,0.422915,Male,21,Portugal,f
4,8,4,7,7,0,1,CO,0.371985,Male,21,Portugal,f
4,8,5,7,7,0,1,CO,0.462375,Male,21,Portugal,f
4,8,6,5,7,0,1,CO,0.43071,Male,21,Portugal,f
4,8,7,6,7,0,1,CO,0.44028,Male,21,Portugal,f
4,8,8,5,7,1,1,Hit,0.462905,Male,21,Portugal,f
4,8,9,6,7,0,1,CO,0.457355,Male,21,Portugal,f
4,8,10,6,7,0,1,CO,0.53792,Male,21,Portugal,f
4,8,11,7,7,0,1,CO,0.49773,Male,21,Portugal,f
4,8,12,5,7,1,0,miss,0.413375,Male,21,Portugal,f
4,8,13,7,7,1,1,Hit,0.722305,Male,21,Portugal,f
4,8,14,7,7,0,1,CO,0.50744,Male,21,Portugal,f
4,8,15,6,7,0,1,CO,0.51259,Male,21,Portugal,f
4,8,16,6,7,1,1,Hit,0.380005,Male,21,Portugal,f
4,8,17,7,7,1,0,miss,0.453965,Male,21,Portugal,f
4,8,18,7,7,1,1,Hit,0.585985,Male,21,Portugal,f
4,8,19,5,7,1,1,Hit,0.54008,Male,21,Portugal,f
4,8,20,6,7,1,1,Hit,0.669665,Male,21,Portugal,f
4,8,21,7,7,0,0,FA,0.58595,Male,21,Portugal,f
4,8,22,5,7,1,1,Hit,0.63735,Male,21,Portugal,f
4,8,23,5,7,0,1,CO,0.46443,Male,21,Portugal,f
4,8,24,5,7,0,1,CO,0.395975,Male,21,Portugal,f
4,8,25,7,7,1,1,Hit,0.620015,Male,21,Portugal,f
4,8,26,6,7,0,1,CO,0.671965,Male,21,Portugal,f
4,8,27,5,7,0,1,CO,0.45643,Male,21,Portugal,f
4,8,28,6,7,1,1,Hit,0.606715,Male,21,Portugal,f
4,8,29,5,7,1,0,miss,0.389675,Male,21,Portugal,f
4,8,30,6,7,1,1,Hit,0.57192,Male,21,Portugal,f
4,9,1,7,4,0,1,CO,0.658515,Male,21,Portugal,f
4,9,2,5,4,1,1,Hit,0.454395,Male,21,Portugal,f
4,9,3,7,4,1,1,Hit,0.89155,Male,21,Portugal,f
4,9,4,5,4,0,1,CO,0.69948,Male,21,Portugal,f
4,9,5,7,4,0,1,CO,0.40557,Male,21,Portugal,f
4,9,6,5,4,0,1,CO,0.405505,Male,21,Portugal,f
4,9,7,7,4,1,0,miss,0.412485,Male,21,Portugal,f
4,9,8,6,4,0,1,CO,0.50788,Male,21,Portugal,f
4,9,9,7,4,1,1,Hit,0.643905,Male,21,Portugal,f
4,9,10,7,4,1,0,miss,0.387575,Male,21,Portugal,f
4,9,11,6,4,0,1,CO,0.37495,Male,21,Portugal,f
4,9,12,6,4,1,0,miss,0.37242,Male,21,Portugal,f
4,9,13,6,4,0,0,FA,0.40784,Male,21,Portugal,f
4,9,14,7,4,0,1,CO,0.56465,Male,21,Portugal,f
4,9,15,5,4,1,0,miss,0.49157,Male,21,Portugal,f
4,9,16,6,4,0,1,CO,0.354445,Male,21,Portugal,f
4,9,17,6,4,1,0,miss,0.40653,Male,21,Portugal,f
4,9,18,7,4,0,1,CO,0.67996,Male,21,Portugal,f
4,9,19,7,4,1,1,Hit,0.497185,Male,21,Portugal,f
4,9,20,5,4,0,1,CO,0.34175,Male,21,Portugal,f
4,9,21,5,4,1,1,Hit,0.604915,Male,21,Portugal,f
4,9,22,6,4,1,0,miss,0.337965,Male,21,Portugal,f
4,9,23,6,4,1,1,Hit,0.554875,Male,21,Portugal,f
4,9,24,5,4,0,1,CO,0.376425,Male,21,Portugal,f
4,9,25,6,4,1,1,Hit,0.530975,Male,21,Portugal,f
4,9,26,7,4,0,1,CO,0.493695,Male,21,Portugal,f
4,9,27,6,4,0,1,CO,0.461805,Male,21,Portugal,f
4,9,28,5,4,1,1,Hit,0.48722,Male,21,Portugal,f
4,9,29,5,4,0,1,CO,0.430515,Male,21,Portugal,f
4,9,30,5,4,1,1,Hit,0.59508,Male,21,Portugal,f
5,1,1,7,4,0,1,CO,0.667485,Female,33,Poland,j
5,1,2,7,4,0,0,FA,0.938995,Female,33,Poland,j
5,1,3,6,4,1,0,miss,0.565845,Female,33,Poland,j
5,1,4,6,4,0,1,CO,0.78422,Female,33,Poland,j
5,1,5,5,4,1,1,Hit,0.557925,Female,33,Poland,j
5,1,6,5,4,1,1,Hit,0.612325,Female,33,Poland,j
5,1,7,7,4,0,1,CO,0.876135,Female,33,Poland,j
5,1,8,6,4,1,1,Hit,0.59968,Female,33,Poland,j
5,1,9,7,4,1,1,Hit,0.716015,Female,33,Poland,j
5,1,10,7,4,0,1,CO,0.640325,Female,33,Poland,j
5,1,11,5,4,0,1,CO,0.81931,Female,33,Poland,j
5,1,12,5,4,1,1,Hit,0.590155,Female,33,Poland,j
5,1,13,5,4,0,1,CO,0.522385,Female,33,Poland,j
5,1,14,7,4,0,1,CO,0.670715,Female,33,Poland,j
5,1,15,5,4,0,1,CO,0.466205,Female,33,Poland,j
5,1,16,5,4,1,0,miss,0.67437,Female,33,Poland,j
5,1,17,6,4,1,0,miss,0.685465,Female,33,Poland,j
5,1,18,7,4,1,1,Hit,1.26637,Female,33,Poland,j
5,1,19,7,4,1,0,miss,0.8617,Female,33,Poland,j
5,1,20,6,4,0,1,CO,0.608505,Female,33,Poland,j
5,1,21,6,4,0,1,CO,1.99792,Female,33,Poland,j
5,1,22,7,4,1,1,Hit,0.772845,Female,33,Poland,j
5,1,23,6,4,0,1,CO,0.5343,Female,33,Poland,j
5,1,24,6,4,1,1,Hit,0.51759,Female,33,Poland,j
5,1,25,5,4,1,1,Hit,0.600315,Female,33,Poland,j
5,1,26,5,4,0,1,CO,0.51775,Female,33,Poland,j
5,1,27,5,4,0,1,CO,0.634335,Female,33,Poland,j
5,1,28,6,4,0,1,CO,0.71517,Female,33,Poland,j
5,1,29,6,4,1,0,miss,1.033695,Female,33,Poland,j
5,1,30,7,4,1,0,miss,1.57358,Female,33,Poland,j
5,2,1,7,7,1,0,miss,0.59479,Female,33,Poland,j
5,2,2,7,7,1,1,Hit,0.67394,Female,33,Poland,j
5,2,3,6,7,0,1,CO,0.535225,Female,33,Poland,j
5,2,4,5,7,1,0,miss,0.626495,Female,33,Poland,j
5,2,5,6,7,1,0,miss,0.666755,Female,33,Poland,j
5,2,6,5,7,1,0,miss,0.83239,Female,33,Poland,j
5,2,7,5,7,1,0,miss,0.89944,Female,33,Poland,j
5,2,8,5,7,1,0,miss,0.73748,Female,33,Poland,j
5,2,9,6,7,0,1,CO,0.53631,Female,33,Poland,j
5,2,10,7,7,0,1,CO,0.48148,Female,33,Poland,j
5,2,11,6,7,1,1,Hit,0.69091,Female,33,Poland,j
5,2,12,5,7,0,1,CO,0.634105,Female,33,Poland,j
5,2,13,6,7,1,1,Hit,0.643,Female,33,Poland,j
5,2,14,5,7,1,0,miss,0.73248,Female,33,Poland,j
5,2,15,6,7,0,1,CO,0.54123,Female,33,Poland,j
5,2,16,7,7,1,1,Hit,0.65319,Female,33,Poland,j
5,2,17,7,7,0,1,CO,0.516385,Female,33,Poland,j
5,2,18,7,7,1,1,Hit,0.732805,Female,33,Poland,j
5,2,19,6,7,1,1,Hit,0.770985,Female,33,Poland,j
5,2,20,6,7,1,1,Hit,1.126475,Female,33,Poland,j
5,2,21,7,7,1,1,Hit,1.367585,Female,33,Poland,j
5,2,22,5,7,0,1,CO,0.63914,Female,33,Poland,j
5,2,23,6,7,0,1,CO,0.586185,Female,33,Poland,j
5,2,24,5,7,0,1,CO,0.6425,Female,33,Poland,j
5,2,25,7,7,0,1,CO,0.665355,Female,33,Poland,j
5,2,26,7,7,0,1,CO,0.66305,Female,33,Poland,j
5,2,27,7,7,0,1,CO,0.481445,Female,33,Poland,j
5,2,28,6,7,0,1,CO,0.46019,Female,33,Poland,j
5,2,29,5,7,0,1,CO,0.533365,Female,33,Poland,j
5,2,30,5,7,0,1,CO,0.627835,Female,33,Poland,j
5,3,1,7,7,0,1,CO,0.68404,Female,33,Poland,j
5,3,2,5,7,1,1,Hit,0.752525,Female,33,Poland,j
5,3,3,5,7,0,1,CO,0.553985,Female,33,Poland,j
5,3,4,7,7,1,1,Hit,0.62609,Female,33,Poland,j
5,3,5,7,7,0,1,CO,0.47062,Female,33,Poland,j
5,3,6,5,7,0,1,CO,0.527135,Female,33,Poland,j
5,3,7,6,7,1,0,miss,0.55131,Female,33,Poland,j
5,3,8,7,7,1,1,Hit,0.6119,Female,33,Poland,j
5,3,9,5,7,1,1,Hit,0.584575,Female,33,Poland,j
5,3,10,6,7,1,1,Hit,0.63696,Female,33,Poland,j
5,3,11,7,7,1,0,miss,0.734565,Female,33,Poland,j
5,3,12,6,7,0,1,CO,0.59296,Female,33,Poland,j
5,3,13,5,7,1,1,Hit,0.690935,Female,33,Poland,j
5,3,14,7,7,1,1,Hit,1.12318,Female,33,Poland,j
5,3,15,6,7,0,1,CO,0.89097,Female,33,Poland,j
5,3,16,7,7,0,1,CO,0.527865,Female,33,Poland,j
5,3,17,6,7,0,1,CO,0.595195,Female,33,Poland,j
5,3,18,6,7,1,0,miss,0.967685,Female,33,Poland,j
5,3,19,5,7,1,1,Hit,0.57559,Female,33,Poland,j
5,3,20,7,7,1,0,miss,0.55142,Female,33,Poland,j
5,3,21,5,7,1,0,miss,0.89974,Female,33,Poland,j
5,3,22,6,7,1,0,miss,0.90735,Female,33,Poland,j
5,3,23,7,7,0,1,CO,0.79317,Female,33,Poland,j
5,3,24,6,7,1,1,Hit,0.824645,Female,33,Poland,j
5,3,25,5,7,0,1,CO,0.63921,Female,33,Poland,j
5,3,26,7,7,0,1,CO,0.650925,Female,33,Poland,j
5,3,27,5,7,0,1,CO,0.63787,Female,33,Poland,j
5,3,28,5,7,0,1,CO,0.658335,Female,33,Poland,j
5,3,29,6,7,0,1,CO,0.615965,Female,33,Poland,j
5,3,30,6,7,0,1,CO,0.50654,Female,33,Poland,j
5,4,1,7,0,0,1,CO,0.97768,Female,33,Poland,j
5,4,2,7,0,0,0,FA,0.770225,Female,33,Poland,j
5,4,3,5,0,0,1,CO,0.771155,Female,33,Poland,j
5,4,4,6,0,0,1,CO,0.48939,Female,33,Poland,j
5,4,5,5,0,1,1,Hit,0.93706,Female,33,Poland,j
5,4,6,7,0,0,1,CO,0.92995,Female,33,Poland,j
5,4,7,6,0,0,1,CO,0.530075,Female,33,Poland,j
5,4,8,5,0,1,1,Hit,0.777715,Female,33,Poland,j
5,4,9,7,0,1,0,miss,0.668855,Female,33,Poland,j
5,4,10,6,0,1,1,Hit,0.69829,Female,33,Poland,j
5,4,11,7,0,0,1,CO,0.61767,Female,33,Poland,j
5,4,12,5,0,0,1,CO,0.89225,Female,33,Poland,j
5,4,13,5,0,0,1,CO,0.80162,Female,33,Poland,j
5,4,14,7,0,1,0,miss,0.777555,Female,33,Poland,j
5,4,15,7,0,0,1,CO,0.856845,Female,33,Poland,j
5,4,16,5,0,0,1,CO,0.740895,Female,33,Poland,j
5,4,17,7,0,1,0,miss,0.579585,Female,33,Poland,j
5,4,18,5,0,0,1,CO,0.573045,Female,33,Poland,j
5,4,19,7,0,1,1,Hit,0.516405,Female,33,Poland,j
5,4,20,6,0,0,1,CO,0.516125,Female,33,Poland,j
5,4,21,7,0,1,0,miss,0.764925,Female,33,Poland,j
5,4,22,5,0,1,0,miss,0.657005,Female,33,Poland,j
5,4,23,6,0,0,1,CO,0.491955,Female,33,Poland,j
5,4,24,6,0,1,1,Hit,0.58296,Female,33,Poland,j
5,4,25,5,0,1,1,Hit,0.9937,Female,33,Poland,j
5,4,26,6,0,0,1,CO,0.629035,Female,33,Poland,j
5,4,27,5,0,1,1,Hit,0.758055,Female,33,Poland,j
5,4,28,6,0,1,1,Hit,0.669725,Female,33,Poland,j
5,4,29,6,0,1,0,miss,0.94018,Female,33,Poland,j
5,4,30,6,0,1,0,miss,1.119855,Female,33,Poland,j
5,5,1,5,0,0,1,CO,0.56604,Female,33,Poland,j
5,5,2,6,0,0,1,CO,0.49842,Female,33,Poland,j
5,5,3,6,0,1,1,Hit,0.43898,Female,33,Poland,j
5,5,4,6,0,1,0,miss,0.478425,Female,33,Poland,j
5,5,5,5,0,1,0,miss,0.60094,Female,33,Poland,j
5,5,6,7,0,1,0,miss,0.64553,Female,33,Poland,j
5,5,7,7,0,0,1,CO,0.468325,Female,33,Poland,j
5,5,8,5,0,0,1,CO,0.605975,Female,33,Poland,j
5,5,9,7,0,1,1,Hit,0.882275,Female,33,Poland,j
5,5,10,5,0,0,1,CO,0.73397,Female,33,Poland,j
5,5,11,7,0,1,0,miss,0.752115,Female,33,Poland,j
5,5,12,7,0,1,0,miss,0.53277,Female,33,Poland,j
5,5,13,5,0,1,1,Hit,0.69914,Female,33,Poland,j
5,5,14,5,0,1,0,miss,0.510405,Female,33,Poland,j
5,5,15,5,0,1,0,miss,0.573845,Female,33,Poland,j
5,5,16,5,0,1,1,Hit,0.693285,Female,33,Poland,j
5,5,17,6,0,1,0,miss,0.77199,Female,33,Poland,j
5,5,18,6,0,0,1,CO,0.66651,Female,33,Poland,j
5,5,19,6,0,0,1,CO,0.64126,Female,33,Poland,j
5,5,20,7,0,0,1,CO,0.78484,Female,33,Poland,j
5,5,21,6,0,1,1,Hit,0.549685,Female,33,Poland,j
5,5,22,5,0,0,1,CO,0.74457,Female,33,Poland,j
5,5,23,6,0,1,0,miss,0.873205,Female,33,Poland,j
5,5,24,7,0,0,1,CO,0.648735,Female,33,Poland,j
5,5,25,6,0,0,1,CO,0.68223,Female,33,Poland,j
5,5,26,6,0,0,1,CO,0.5894,Female,33,Poland,j
5,5,27,7,0,0,1,CO,0.637735,Female,33,Poland,j
5,5,28,7,0,1,0,miss,0.68519,Female,33,Poland,j
5,5,29,5,0,0,1,CO,0.690605,Female,33,Poland,j
5,5,30,7,0,0,1,CO,0.43954,Female,33,Poland,j
5,6,1,7,0,0,1,CO,0.53331,Female,33,Poland,j
5,6,2,6,0,1,0,miss,0.440285,Female,33,Poland,j
5,6,3,5,0,0,1,CO,0.535655,Female,33,Poland,j
5,6,4,6,0,0,1,CO,0.52341,Female,33,Poland,j
5,6,5,5,0,1,1,Hit,0.55214,Female,33,Poland,j
5,6,6,6,0,1,1,Hit,0.7487,Female,33,Poland,j
5,6,7,6,0,0,1,CO,0.734405,Female,33,Poland,j
5,6,8,7,0,0,1,CO,0.638765,Female,33,Poland,j
5,6,9,6,0,0,0,FA,0.807605,Female,33,Poland,j
5,6,10,6,0,0,1,CO,0.655765,Female,33,Poland,j
5,6,11,5,0,0,1,CO,0.7066,Female,33,Poland,j
5,6,12,5,0,1,0,miss,0.932455,Female,33,Poland,j
5,6,13,7,0,1,0,miss,0.55666,Female,33,Poland,j
5,6,14,7,0,1,1,Hit,0.49099,Female,33,Poland,j
5,6,15,5,0,0,1,CO,0.639345,Female,33,Poland,j
5,6,16,5,0,0,1,CO,0.61994,Female,33,Poland,j
5,6,17,5,0,1,0,miss,0.68925,Female,33,Poland,j
5,6,18,7,0,1,0,miss,0.55455,Female,33,Poland,j
5,6,19,5,0,0,1,CO,0.91643,Female,33,Poland,j
5,6,20,7,0,0,1,CO,0.7614,Female,33,Poland,j
5,6,21,6,0,1,0,miss,0.63502,Female,33,Poland,j
5,6,22,5,0,1,1,Hit,0.922075,Female,33,Poland,j
5,6,23,7,0,1,0,miss,0.551705,Female,33,Poland,j
5,6,24,6,0,1,1,Hit,0.466045,Female,33,Poland,j
5,6,25,6,0,1,0,miss,0.52328,Female,33,Poland,j
5,6,26,7,0,0,1,CO,0.686875,Female,33,Poland,j
5,6,27,5,0,1,0,miss,0.428895,Female,33,Poland,j
5,6,28,7,0,1,0,miss,0.557365,Female,33,Poland,j
5,6,29,7,0,0,1,CO,0.612725,Female,33,Poland,j
5,6,30,6,0,0,1,CO,0.687485,Female,33,Poland,j
5,7,1,5,7,1,1,Hit,0.549555,Female,33,Poland,j
5,7,2,7,7,1,0,miss,0.740295,Female,33,Poland,j
5,7,3,6,7,0,1,CO,0.85929,Female,33,Poland,j
5,7,4,5,7,0,1,CO,0.523525,Female,33,Poland,j
5,7,5,6,7,0,1,CO,0.44375,Female,33,Poland,j
5,7,6,5,7,1,1,Hit,1.03581,Female,33,Poland,j
5,7,7,5,7,0,1,CO,0.416575,Female,33,Poland,j
5,7,8,7,7,1,0,miss,0.443195,Female,33,Poland,j
5,7,9,7,7,0,1,CO,0.4651,Female,33,Poland,j
5,7,10,5,7,1,0,miss,0.95892,Female,33,Poland,j
5,7,11,6,7,1,0,miss,0.850205,Female,33,Poland,j
5,7,12,7,7,1,0,miss,0.66374,Female,33,Poland,j
5,7,13,7,7,0,1,CO,0.65869,Female,33,Poland,j
5,7,14,7,7,0,1,CO,0.47825,Female,33,Poland,j
5,7,15,6,7,1,0,miss,0.393625,Female,33,Poland,j
5,7,16,5,7,1,1,Hit,0.53774,Female,33,Poland,j
5,7,17,6,7,0,1,CO,0.423805,Female,33,Poland,j
5,7,18,6,7,1,0,miss,0.41618,Female,33,Poland,j
5,7,19,7,7,0,1,CO,0.492775,Female,33,Poland,j
5,7,20,5,7,0,1,CO,0.61574,Female,33,Poland,j
5,7,21,5,7,1,0,miss,0.541795,Female,33,Poland,j
5,7,22,6,7,0,1,CO,0.56003,Female,33,Poland,j
5,7,23,6,7,1,1,Hit,0.678405,Female,33,Poland,j
5,7,24,7,7,0,1,CO,0.571545,Female,33,Poland,j
5,7,25,7,7,1,1,Hit,0.70242,Female,33,Poland,j
5,7,26,5,7,0,1,CO,0.60133,Female,33,Poland,j
5,7,27,6,7,0,1,CO,0.65553,Female,33,Poland,j
5,7,28,6,7,1,1,Hit,0.7352,Female,33,Poland,j
5,7,29,5,7,0,1,CO,0.83091,Female,33,Poland,j
5,7,30,7,7,1,0,miss,0.73262,Female,33,Poland,j
5,8,1,6,4,0,1,CO,0.61546,Female,33,Poland,j
5,8,2,7,4,1,0,miss,0.454005,Female,33,Poland,j
5,8,3,7,4,1,0,miss,0.47655,Female,33,Poland,j
5,8,4,5,4,0,1,CO,0.512905,Female,33,Poland,j
5,8,5,5,4,1,1,Hit,0.80077,Female,33,Poland,j
5,8,6,6,4,0,1,CO,0.68744,Female,33,Poland,j
5,8,7,6,4,1,0,miss,0.622315,Female,33,Poland,j
5,8,8,7,4,0,1,CO,0.57309,Female,33,Poland,j
5,8,9,7,4,1,1,Hit,0.66827,Female,33,Poland,j
5,8,10,5,4,1,1,Hit,0.555105,Female,33,Poland,j
5,8,11,6,4,1,1,Hit,0.60023,Female,33,Poland,j
5,8,12,6,4,0,1,CO,0.71611,Female,33,Poland,j
5,8,13,6,4,1,0,miss,0.765925,Female,33,Poland,j
5,8,14,5,4,1,0,miss,0.645195,Female,33,Poland,j
5,8,15,7,4,1,0,miss,0.73602,Female,33,Poland,j
5,8,16,6,4,0,1,CO,0.5958,Female,33,Poland,j
5,8,17,6,4,1,0,miss,0.794845,Female,33,Poland,j
5,8,18,5,4,0,1,CO,0.566105,Female,33,Poland,j
5,8,19,7,4,0,1,CO,0.421375,Female,33,Poland,j
5,8,20,7,4,0,1,CO,0.577115,Female,33,Poland,j
5,8,21,5,4,0,1,CO,0.65335,Female,33,Poland,j
5,8,22,6,4,1,1,Hit,1.10903,Female,33,Poland,j
5,8,23,5,4,1,1,Hit,0.59997,Female,33,Poland,j
5,8,24,5,4,0,1,CO,0.591925,Female,33,Poland,j
5,8,25,7,4,1,0,miss,0.855325,Female,33,Poland,j
5,8,26,7,4,0,1,CO,0.634035,Female,33,Poland,j
5,8,27,5,4,0,1,CO,0.68318,Female,33,Poland,j
5,8,28,6,4,0,1,CO,0.52753,Female,33,Poland,j
5,8,29,7,4,0,1,CO,0.734825,Female,33,Poland,j
5,8,30,5,4,1,1,Hit,0.9718,Female,33,Poland,j
5,9,1,5,4,0,1,CO,0.46721,Female,33,Poland,j
5,9,2,5,4,1,0,miss,0.52239,Female,33,Poland,j
5,9,3,7,4,1,1,Hit,0.5673,Female,33,Poland,j
5,9,4,7,4,1,1,Hit,0.540395,Female,33,Poland,j
5,9,5,7,4,0,1,CO,0.56849,Female,33,Poland,j
5,9,6,6,4,1,0,miss,0.62333,Female,33,Poland,j
5,9,7,5,4,1,0,miss,0.5511,Female,33,Poland,j
5,9,8,6,4,1,0,miss,1.12925,Female,33,Poland,j
5,9,9,7,4,1,0,miss,0.529355,Female,33,Poland,j
5,9,10,6,4,0,0,FA,0.8831,Female,33,Poland,j
5,9,11,6,4,0,1,CO,0.559685,Female,33,Poland,j
5,9,12,6,4,0,1,CO,0.59925,Female,33,Poland,j
5,9,13,6,4,1,0,miss,0.50732,Female,33,Poland,j
5,9,14,7,4,1,1,Hit,0.46919,Female,33,Poland,j
5,9,15,5,4,0,1,CO,0.516485,Female,33,Poland,j
5,9,16,5,4,1,1,Hit,0.505575,Female,33,Poland,j
5,9,17,6,4,0,0,FA,0.691535,Female,33,Poland,j
5,9,18,5,4,0,1,CO,0.645435,Female,33,Poland,j
5,9,19,6,4,1,1,Hit,0.49042,Female,33,Poland,j
5,9,20,7,4,0,1,CO,0.63273,Female,33,Poland,j
5,9,21,6,4,1,0,miss,0.518005,Female,33,Poland,j
5,9,22,5,4,0,1,CO,0.66681,Female,33,Poland,j
5,9,23,7,4,0,1,CO,0.572235,Female,33,Poland,j
5,9,24,5,4,1,0,miss,0.47609,Female,33,Poland,j
5,9,25,7,4,0,0,FA,1.136615,Female,33,Poland,j
5,9,26,5,4,0,1,CO,0.458275,Female,33,Poland,j
5,9,27,6,4,0,1,CO,0.501815,Female,33,Poland,j
5,9,28,7,4,1,0,miss,0.701645,Female,33,Poland,j
5,9,29,7,4,0,1,CO,0.618355,Female,33,Poland,j
5,9,30,5,4,1,0,miss,0.50351,Female,33,Poland,j
6,1,1,5,0,1,0,miss,0.527,Male,23,United Kingdom,f
6,1,2,6,0,0,1,CO,0.966,Male,23,United Kingdom,f
6,1,3,7,0,0,0,FA,0.652,Male,23,United Kingdom,f
6,1,4,7,0,1,1,Hit,0.768,Male,23,United Kingdom,f
6,1,5,7,0,0,1,CO,0.698,Male,23,United Kingdom,f
6,1,6,5,0,0,1,CO,1.103,Male,23,United Kingdom,f
6,1,7,5,0,1,1,Hit,0.726,Male,23,United Kingdom,f
6,1,8,6,0,1,1,Hit,0.778,Male,23,United Kingdom,f
6,1,9,7,0,1,0,miss,1.117,Male,23,United Kingdom,f
6,1,10,5,0,1,1,Hit,0.619,Male,23,United Kingdom,f
6,1,11,5,0,0,1,CO,1.035,Male,23,United Kingdom,f
6,1,12,6,0,0,0,FA,0.823,Male,23,United Kingdom,f
6,1,13,6,0,1,0,miss,0.95,Male,23,United Kingdom,f
6,1,14,6,0,1,0,miss,1.387,Male,23,United Kingdom,f
6,1,15,5,0,1,1,Hit,0.713,Male,23,United Kingdom,f
6,1,16,7,0,0,0,FA,0.652,Male,23,United Kingdom,f
6,1,17,5,0,1,0,miss,0.937,Male,23,United Kingdom,f
6,1,18,6,0,1,1,Hit,0.763,Male,23,United Kingdom,f
6,1,19,6,0,0,1,CO,1.22,Male,23,United Kingdom,f
6,1,20,5,0,0,1,CO,0.586,Male,23,United Kingdom,f
6,1,21,7,0,1,0,miss,0.849,Male,23,United Kingdom,f
6,1,22,5,0,0,1,CO,0.984,Male,23,United Kingdom,f
6,1,23,6,0,1,1,Hit,0.782,Male,23,United Kingdom,f
6,1,24,5,0,0,1,CO,0.626,Male,23,United Kingdom,f
6,1,25,6,0,0,1,CO,0.808,Male,23,United Kingdom,f
6,1,26,7,0,1,1,Hit,0.693,Male,23,United Kingdom,f
6,1,27,7,0,0,1,CO,0.638,Male,23,United Kingdom,f
6,1,28,7,0,1,1,Hit,0.703,Male,23,United Kingdom,f
6,1,29,6,0,0,1,CO,0.978,Male,23,United Kingdom,f
6,1,30,7,0,0,1,CO,0.651,Male,23,United Kingdom,f
6,2,1,5,7,1,1,Hit,1.383,Male,23,United Kingdom,f
6,2,2,6,7,0,1,CO,0.857,Male,23,United Kingdom,f
6,2,3,7,7,1,0,miss,0.926,Male,23,United Kingdom,f
6,2,4,7,7,0,0,FA,0.736,Male,23,United Kingdom,f
6,2,5,5,7,0,1,CO,0.595,Male,23,United Kingdom,f
6,2,6,5,7,1,1,Hit,0.596,Male,23,United Kingdom,f
6,2,7,6,7,1,0,miss,0.505,Male,23,United Kingdom,f
6,2,8,7,7,0,1,CO,0.735,Male,23,United Kingdom,f
6,2,9,7,7,1,0,miss,1.2,Male,23,United Kingdom,f
6,2,10,5,7,0,1,CO,0.849,Male,23,United Kingdom,f
6,2,11,7,7,0,1,CO,0.718,Male,23,United Kingdom,f
6,2,12,5,7,0,1,CO,0.819,Male,23,United Kingdom,f
6,2,13,7,7,1,0,miss,1.143,Male,23,United Kingdom,f
6,2,14,5,7,0,1,CO,0.756,Male,23,United Kingdom,f
6,2,15,6,7,1,1,Hit,1.261,Male,23,United Kingdom,f
6,2,16,6,7,1,1,Hit,0.96,Male,23,United Kingdom,f
6,2,17,6,7,0,1,CO,0.654,Male,23,United Kingdom,f
6,2,18,5,7,1,1,Hit,1.047,Male,23,United Kingdom,f
6,2,19,7,7,1,1,Hit,0.805,Male,23,United Kingdom,f
6,2,20,6,7,0,1,CO,0.673,Male,23,United Kingdom,f
6,2,21,5,7,1,1,Hit,0.912,Male,23,United Kingdom,f
6,2,22,5,7,0,1,CO,0.758,Male,23,United Kingdom,f
6,2,23,6,7,1,1,Hit,0.643,Male,23,United Kingdom,f
6,2,24,5,7,1,0,miss,0.51,Male,23,United Kingdom,f
6,2,25,7,7,1,1,Hit,0.768,Male,23,United Kingdom,f
6,2,26,7,7,0,1,CO,1.292,Male,23,United Kingdom,f
6,2,27,6,7,0,0,FA,0.677,Male,23,United Kingdom,f
6,2,28,6,7,1,0,miss,1.051,Male,23,United Kingdom,f
6,2,29,7,7,0,1,CO,0.707,Male,23,United Kingdom,f
6,2,30,6,7,0,1,CO,0.768,Male,23,United Kingdom,f
6,3,1,5,7,1,1,Hit,0.586,Male,23,United Kingdom,f
6,3,2,7,7,0,0,FA,1.271,Male,23,United Kingdom,f
6,3,3,6,7,1,1,Hit,0.684,Male,23,United Kingdom,f
6,3,4,6,7,1,0,miss,0.933,Male,23,United Kingdom,f
6,3,5,7,7,1,0,miss,0.78,Male,23,United Kingdom,f
6,3,6,7,7,0,1,CO,0.81,Male,23,United Kingdom,f
6,3,7,5,7,1,1,Hit,0.63,Male,23,United Kingdom,f
6,3,8,5,7,1,0,miss,0.789,Male,23,United Kingdom,f
6,3,9,5,7,0,1,CO,0.805,Male,23,United Kingdom,f
6,3,10,5,7,0,1,CO,0.593,Male,23,United Kingdom,f
6,3,11,6,7,0,1,CO,0.536,Male,23,United Kingdom,f
6,3,12,5,7,0,1,CO,0.927,Male,23,United Kingdom,f
6,3,13,7,7,1,1,Hit,0.644,Male,23,United Kingdom,f
6,3,14,7,7,0,1,CO,0.889,Male,23,United Kingdom,f
6,3,15,6,7,0,1,CO,0.692,Male,23,United Kingdom,f
6,3,16,6,7,0,1,CO,0.512,Male,23,United Kingdom,f
6,3,17,6,7,1,1,Hit,0.653,Male,23,United Kingdom,f
6,3,18,6,7,1,0,miss,0.982,Male,23,United Kingdom,f
6,3,19,7,7,0,0,FA,1.312,Male,23,United Kingdom,f
6,3,20,5,7,1,1,Hit,0.717,Male,23,United Kingdom,f
6,3,21,7,7,0,1,CO,0.65,Male,23,United Kingdom,f
6,3,22,5,7,0,1,CO,0.52,Male,23,United Kingdom,f
6,3,23,7,7,1,1,Hit,0.602,Male,23,United Kingdom,f
6,3,24,6,7,1,1,Hit,0.788,Male,23,United Kingdom,f
6,3,25,7,7,1,1,Hit,0.916,Male,23,United Kingdom,f
6,3,26,5,7,1,1,Hit,0.59,Male,23,United Kingdom,f
6,3,27,6,7,0,1,CO,0.607,Male,23,United Kingdom,f
6,3,28,5,7,0,1,CO,0.637,Male,23,United Kingdom,f
6,3,29,6,7,0,1,CO,0.572,Male,23,United Kingdom,f
6,3,30,7,7,1,1,Hit,0.803,Male,23,United Kingdom,f
6,4,1,5,7,1,1,Hit,1.241,Male,23,United Kingdom,f
6,4,2,7,7,1,0,miss,1.136,Male,23,United Kingdom,f
6,4,3,6,7,1,1,Hit,1.394,Male,23,United Kingdom,f
6,4,4,6,7,0,0,FA,1.235,Male,23,United Kingdom,f
6,4,5,7,7,0,0,FA,1.435,Male,23,United Kingdom,f
6,4,6,5,7,1,1,Hit,0.698,Male,23,United Kingdom,f
6,4,7,6,7,1,1,Hit,0.62,Male,23,United Kingdom,f
6,4,8,5,7,1,1,Hit,0.92,Male,23,United Kingdom,f
6,4,9,6,7,0,1,CO,0.612,Male,23,United Kingdom,f
6,4,10,7,7,0,1,CO,0.658,Male,23,United Kingdom,f
6,4,11,6,7,1,1,Hit,0.926,Male,23,United Kingdom,f
6,4,12,7,7,1,1,Hit,1.088,Male,23,United Kingdom,f
6,4,13,7,7,1,0,miss,1.344,Male,23,United Kingdom,f
6,4,14,7,7,0,1,CO,0.776,Male,23,United Kingdom,f
6,4,15,5,7,0,1,CO,0.824,Male,23,United Kingdom,f
6,4,16,5,7,0,1,CO,1.94,Male,23,United Kingdom,f
6,4,17,7,7,1,0,miss,0.912,Male,23,United Kingdom,f
6,4,18,7,7,0,1,CO,0.947,Male,23,United Kingdom,f
6,4,19,5,7,0,1,CO,0.434,Male,23,United Kingdom,f
6,4,20,7,7,0,1,CO,1.427,Male,23,United Kingdom,f
6,4,21,6,7,1,1,Hit,0.888,Male,23,United Kingdom,f
6,4,22,5,7,0,1,CO,0.778,Male,23,United Kingdom,f
6,4,23,7,7,1,1,Hit,0.76,Male,23,United Kingdom,f
6,4,24,5,7,1,1,Hit,0.658,Male,23,United Kingdom,f
6,4,25,6,7,0,1,CO,0.729,Male,23,United Kingdom,f
6,4,26,5,7,0,1,CO,0.483,Male,23,United Kingdom,f
6,4,27,6,7,0,1,CO,0.826,Male,23,United Kingdom,f
6,4,28,6,7,0,1,CO,0.611,Male,23,United Kingdom,f
6,4,29,6,7,1,1,Hit,0.712,Male,23,United Kingdom,f
6,4,30,5,7,1,1,Hit,0.906,Male,23,United Kingdom,f
6,5,1,5,0,0,1,CO,0.633,Male,23,United Kingdom,f
6,5,2,6,0,1,1,Hit,0.775,Male,23,United Kingdom,f
6,5,3,7,0,0,1,CO,0.724,Male,23,United Kingdom,f
6,5,4,6,0,0,1,CO,0.668,Male,23,United Kingdom,f
6,5,5,5,0,1,1,Hit,1.022,Male,23,United Kingdom,f
6,5,6,7,0,1,1,Hit,1.077,Male,23,United Kingdom,f
6,5,7,6,0,1,0,miss,0.661,Male,23,United Kingdom,f
6,5,8,6,0,0,1,CO,0.791,Male,23,United Kingdom,f
6,5,9,7,0,0,1,CO,0.417,Male,23,United Kingdom,f
6,5,10,7,0,0,1,CO,0.753,Male,23,United Kingdom,f
6,5,11,5,0,0,1,CO,0.588,Male,23,United Kingdom,f
6,5,12,7,0,1,1,Hit,0.686,Male,23,United Kingdom,f
6,5,13,6,0,1,1,Hit,1.223,Male,23,United Kingdom,f
6,5,14,7,0,1,0,miss,0.616,Male,23,United Kingdom,f
6,5,15,6,0,0,1,CO,1.025,Male,23,United Kingdom,f
6,5,16,5,0,1,0,miss,0.619,Male,23,United Kingdom,f
6,5,17,6,0,1,1,Hit,0.77,Male,23,United Kingdom,f
6,5,18,7,0,1,1,Hit,0.866,Male,23,United Kingdom,f
6,5,19,6,0,1,0,miss,0.585,Male,23,United Kingdom,f
6,5,20,7,0,0,1,CO,1.063,Male,23,United Kingdom,f
6,5,21,5,0,0,0,FA,0.57,Male,23,United Kingdom,f
6,5,22,5,0,1,1,Hit,0.718,Male,23,United Kingdom,f
6,5,23,7,0,0,0,FA,1.117,Male,23,United Kingdom,f
6,5,24,6,0,0,1,CO,1.095,Male,23,United Kingdom,f
6,5,25,7,0,1,1,Hit,2.19,Male,23,United Kingdom,f
6,5,26,5,0,1,0,miss,0.611,Male,23,United Kingdom,f
6,5,27,5,0,0,1,CO,0.559,Male,23,United Kingdom,f
6,5,28,5,0,0,1,CO,1.423,Male,23,United Kingdom,f
6,5,29,6,0,0,1,CO,0.827,Male,23,United Kingdom,f
6,5,30,5,0,1,1,Hit,0.549,Male,23,United Kingdom,f
6,6,1,7,4,1,1,Hit,0.541,Male,23,United Kingdom,f
6,6,2,7,4,1,1,Hit,0.852,Male,23,United Kingdom,f
6,6,3,7,4,1,1,Hit,0.462,Male,23,United Kingdom,f
6,6,4,6,4,0,1,CO,0.835,Male,23,United Kingdom,f
6,6,5,6,4,0,1,CO,0.535,Male,23,United Kingdom,f
6,6,6,7,4,0,1,CO,0.52,Male,23,United Kingdom,f
6,6,7,5,4,1,1,Hit,0.969,Male,23,United Kingdom,f
6,6,8,7,4,0,1,CO,0.635,Male,23,United Kingdom,f
6,6,9,7,4,0,1,CO,0.537,Male,23,United Kingdom,f
6,6,10,6,4,1,0,miss,1.259,Male,23,United Kingdom,f
6,6,11,5,4,0,1,CO,0.636,Male,23,United Kingdom,f
6,6,12,7,4,1,0,miss,0.969,Male,23,United Kingdom,f
6,6,13,5,4,1,0,miss,0.855,Male,23,United Kingdom,f
6,6,14,5,4,0,1,CO,1.076,Male,23,United Kingdom,f
6,6,15,5,4,0,1,CO,0.951,Male,23,United Kingdom,f
6,6,16,6,4,1,1,Hit,1.588,Male,23,United Kingdom,f
6,6,17,6,4,0,1,CO,0.837,Male,23,United Kingdom,f
6,6,18,5,4,1,1,Hit,0.498,Male,23,United Kingdom,f
6,6,19,7,4,1,0,miss,0.936,Male,23,United Kingdom,f
6,6,20,7,4,0,1,CO,0.889,Male,23,United Kingdom,f
6,6,21,7,4,0,1,CO,0.505,Male,23,United Kingdom,f
6,6,22,6,4,1,1,Hit,0.713,Male,23,United Kingdom,f
6,6,23,6,4,0,0,FA,0.887,Male,23,United Kingdom,f
6,6,24,5,4,0,1,CO,0.735,Male,23,United Kingdom,f
6,6,25,5,4,1,1,Hit,0.651,Male,23,United Kingdom,f
6,6,26,6,4,1,1,Hit,1.284,Male,23,United Kingdom,f
6,6,27,5,4,0,1,CO,0.607,Male,23,United Kingdom,f
6,6,28,5,4,1,1,Hit,1.538,Male,23,United Kingdom,f
6,6,29,6,4,1,0,miss,0.851,Male,23,United Kingdom,f
6,6,30,6,4,0,1,CO,2.093,Male,23,United Kingdom,f
6,7,1,7,0,1,1,Hit,1.067,Male,23,United Kingdom,f
6,7,2,6,0,1,0,miss,0.92,Male,23,United Kingdom,f
6,7,3,5,0,0,0,FA,0.574,Male,23,United Kingdom,f
6,7,4,7,0,0,1,CO,1.208,Male,23,United Kingdom,f
6,7,5,7,0,0,1,CO,0.663,Male,23,United Kingdom,f
6,7,6,6,0,1,1,Hit,0.784,Male,23,United Kingdom,f
6,7,7,5,0,0,1,CO,0.709,Male,23,United Kingdom,f
6,7,8,7,0,1,1,Hit,1.293,Male,23,United Kingdom,f
6,7,9,6,0,0,1,CO,1.033,Male,23,United Kingdom,f
6,7,10,5,0,1,1,Hit,0.914,Male,23,United Kingdom,f
6,7,11,6,0,1,1,Hit,1.318,Male,23,United Kingdom,f
6,7,12,7,0,1,1,Hit,0.676,Male,23,United Kingdom,f
6,7,13,7,0,0,1,CO,0.576,Male,23,United Kingdom,f
6,7,14,5,0,0,1,CO,0.516,Male,23,United Kingdom,f
6,7,15,6,0,1,1,Hit,0.687,Male,23,United Kingdom,f
6,7,16,7,0,0,1,CO,1.118,Male,23,United Kingdom,f
6,7,17,5,0,0,0,FA,1.159,Male,23,United Kingdom,f
6,7,18,7,0,1,1,Hit,0.678,Male,23,United Kingdom,f
6,7,19,5,0,1,1,Hit,0.937,Male,23,United Kingdom,f
6,7,20,7,0,1,0,miss,1.009,Male,23,United Kingdom,f
6,7,21,6,0,0,1,CO,0.592,Male,23,United Kingdom,f
6,7,22,5,0,1,1,Hit,0.675,Male,23,United Kingdom,f
6,7,23,5,0,1,1,Hit,0.693,Male,23,United Kingdom,f
6,7,24,5,0,0,1,CO,0.606,Male,23,United Kingdom,f
6,7,25,7,0,0,1,CO,1.078,Male,23,United Kingdom,f
6,7,26,6,0,1,1,Hit,0.628,Male,23,United Kingdom,f
6,7,27,6,0,0,1,CO,1.483,Male,23,United Kingdom,f
6,7,28,6,0,0,1,CO,0.435,Male,23,United Kingdom,f
6,7,29,5,0,1,0,miss,0.522,Male,23,United Kingdom,f
6,7,30,6,0,0,1,CO,0.426,Male,23,United Kingdom,f
6,8,1,5,4,1,1,Hit,0.741,Male,23,United Kingdom,f
6,8,2,7,4,1,1,Hit,0.723,Male,23,United Kingdom,f
6,8,3,5,4,0,1,CO,0.577,Male,23,United Kingdom,f
6,8,4,6,4,0,1,CO,0.704,Male,23,United Kingdom,f
6,8,5,5,4,1,1,Hit,0.722,Male,23,United Kingdom,f
6,8,6,6,4,1,1,Hit,1.12,Male,23,United Kingdom,f
6,8,7,6,4,1,1,Hit,0.752,Male,23,United Kingdom,f
6,8,8,7,4,0,1,CO,0.978,Male,23,United Kingdom,f
6,8,9,5,4,1,0,miss,1.075,Male,23,United Kingdom,f
6,8,10,7,4,0,1,CO,1.107,Male,23,United Kingdom,f
6,8,11,6,4,1,1,Hit,1.214,Male,23,United Kingdom,f
6,8,12,7,4,1,0,miss,1.127,Male,23,United Kingdom,f
6,8,13,5,4,1,1,Hit,0.697,Male,23,United Kingdom,f
6,8,14,7,4,1,0,miss,0.922,Male,23,United Kingdom,f
6,8,15,6,4,1,1,Hit,1.704,Male,23,United Kingdom,f
6,8,16,5,4,0,0,FA,0.742,Male,23,United Kingdom,f
6,8,17,6,4,1,0,miss,0.903,Male,23,United Kingdom,f
6,8,18,5,4,0,1,CO,1.069,Male,23,United Kingdom,f
6,8,19,6,4,0,0,FA,0.872,Male,23,United Kingdom,f
6,8,20,7,4,0,1,CO,0.98,Male,23,United Kingdom,f
6,8,21,7,4,0,1,CO,0.601,Male,23,United Kingdom,f
6,8,22,5,4,1,1,Hit,0.658,Male,23,United Kingdom,f
6,8,23,7,4,1,1,Hit,0.603,Male,23,United Kingdom,f
6,8,24,5,4,0,1,CO,0.817,Male,23,United Kingdom,f
6,8,25,6,4,0,0,FA,1.019,Male,23,United Kingdom,f
6,8,26,6,4,0,0,FA,1.003,Male,23,United Kingdom,f
6,8,27,5,4,0,1,CO,0.905,Male,23,United Kingdom,f
6,8,28,6,4,0,1,CO,0.903,Male,23,United Kingdom,f
6,8,29,7,4,1,1,Hit,0.857,Male,23,United Kingdom,f
6,8,30,7,4,0,1,CO,0.646,Male,23,United Kingdom,f
6,9,1,6,4,1,1,Hit,0.586,Male,23,United Kingdom,f
6,9,2,5,4,0,1,CO,0.583,Male,23,United Kingdom,f
6,9,3,6,4,1,0,miss,0.777,Male,23,United Kingdom,f
6,9,4,7,4,1,1,Hit,0.64,Male,23,United Kingdom,f
6,9,5,6,4,0,1,CO,0.679,Male,23,United Kingdom,f
6,9,6,7,4,1,1,Hit,0.877,Male,23,United Kingdom,f
6,9,7,5,4,1,0,miss,1.195,Male,23,United Kingdom,f
6,9,8,7,4,0,1,CO,0.706,Male,23,United Kingdom,f
6,9,9,5,4,1,1,Hit,0.668,Male,23,United Kingdom,f
6,9,10,5,4,0,1,CO,1.271,Male,23,United Kingdom,f
6,9,11,6,4,1,1,Hit,0.777,Male,23,United Kingdom,f
6,9,12,7,4,1,1,Hit,0.659,Male,23,United Kingdom,f
6,9,13,7,4,1,1,Hit,0.825,Male,23,United Kingdom,f
6,9,14,6,4,1,0,miss,0.711,Male,23,United Kingdom,f
6,9,15,5,4,1,1,Hit,0.978,Male,23,United Kingdom,f
6,9,16,5,4,0,1,CO,0.669,Male,23,United Kingdom,f
6,9,17,7,4,0,0,FA,1.019,Male,23,United Kingdom,f
6,9,18,5,4,1,1,Hit,0.971,Male,23,United Kingdom,f
6,9,19,6,4,0,1,CO,0.652,Male,23,United Kingdom,f
6,9,20,6,4,0,1,CO,0.785,Male,23,United Kingdom,f
6,9,21,7,4,1,1,Hit,0.97,Male,23,United Kingdom,f
6,9,22,7,4,0,1,CO,0.636,Male,23,United Kingdom,f
6,9,23,6,4,1,0,miss,0.742,Male,23,United Kingdom,f
6,9,24,5,4,0,1,CO,0.678,Male,23,United Kingdom,f
6,9,25,5,4,1,1,Hit,0.876,Male,23,United Kingdom,f
6,9,26,5,4,0,1,CO,1.593,Male,23,United Kingdom,f
6,9,27,7,4,0,1,CO,0.731,Male,23,United Kingdom,f
6,9,28,6,4,0,0,FA,0.957,Male,23,United Kingdom,f
6,9,29,6,4,0,1,CO,0.794,Male,23,United Kingdom,f
6,9,30,7,4,0,1,CO,0.541,Male,23,United Kingdom,f
7,1,1,5,4,1,0,miss,0.66586,Male,25,Portugal,f
7,1,2,7,4,1,1,Hit,0.632485,Male,25,Portugal,f
7,1,3,5,4,0,1,CO,0.572845,Male,25,Portugal,f
7,1,4,6,4,0,0,FA,0.965505,Male,25,Portugal,f
7,1,5,5,4,1,1,Hit,0.752945,Male,25,Portugal,f
7,1,6,6,4,1,0,miss,0.50769,Male,25,Portugal,f
7,1,7,6,4,1,1,Hit,0.55042,Male,25,Portugal,f
7,1,8,7,4,0,1,CO,1.20738,Male,25,Portugal,f
7,1,9,5,4,1,1,Hit,0.615705,Male,25,Portugal,f
7,1,10,7,4,0,0,FA,0.53588,Male,25,Portugal,f
7,1,11,6,4,1,1,Hit,0.87523,Male,25,Portugal,f
7,1,12,7,4,1,0,miss,0.76574,Male,25,Portugal,f
7,1,13,5,4,1,1,Hit,0.56111,Male,25,Portugal,f
7,1,14,7,4,1,1,Hit,1.504065,Male,25,Portugal,f
7,1,15,6,4,1,0,miss,0.69093,Male,25,Portugal,f
7,1,16,5,4,0,1,CO,0.78813,Male,25,Portugal,f
7,1,17,6,4,1,1,Hit,1.091505,Male,25,Portugal,f
7,1,18,5,4,0,1,CO,1.07897,Male,25,Portugal,f
7,1,19,6,4,0,1,CO,0.80084,Male,25,Portugal,f
7,1,20,7,4,0,1,CO,1.31465,Male,25,Portugal,f
7,1,21,7,4,0,1,CO,0.709765,Male,25,Portugal,f
7,1,22,5,4,1,0,miss,0.6261,Male,25,Portugal,f
7,1,23,7,4,1,1,Hit,0.75017,Male,25,Portugal,f
7,1,24,5,4,0,1,CO,1.92072,Male,25,Portugal,f
7,1,25,6,4,0,1,CO,1.3889,Male,25,Portugal,f
7,1,26,6,4,0,0,FA,0.76233,Male,25,Portugal,f
7,1,27,5,4,0,1,CO,0.865915,Male,25,Portugal,f
7,1,28,6,4,0,1,CO,0.767025,Male,25,Portugal,f
7,1,29,7,4,1,0,miss,0.829005,Male,25,Portugal,f
7,1,30,7,4,0,1,CO,0.90536,Male,25,Portugal,f
7,2,1,5,0,0,1,CO,0.730195,Male,25,Portugal,f
7,2,2,6,0,1,1,Hit,0.71018,Male,25,Portugal,f
7,2,3,7,0,0,1,CO,0.969225,Male,25,Portugal,f
7,2,4,6,0,0,1,CO,0.857065,Male,25,Portugal,f
7,2,5,5,0,1,1,Hit,0.7437,Male,25,Portugal,f
7,2,6,7,0,1,0,miss,0.76942,Male,25,Portugal,f
7,2,7,6,0,1,0,miss,0.68712,Male,25,Portugal,f
7,2,8,6,0,0,1,CO,0.976505,Male,25,Portugal,f
7,2,9,7,0,0,0,FA,1.872775,Male,25,Portugal,f
7,2,10,7,0,0,1,CO,1.39437,Male,25,Portugal,f
7,2,11,5,0,0,1,CO,0.67194,Male,25,Portugal,f
7,2,12,7,0,1,0,miss,0.750105,Male,25,Portugal,f
7,2,13,6,0,1,1,Hit,0.900015,Male,25,Portugal,f
7,2,14,7,0,1,1,Hit,0.70929,Male,25,Portugal,f
7,2,15,6,0,0,1,CO,1.62429,Male,25,Portugal,f
7,2,16,5,0,1,1,Hit,0.87808,Male,25,Portugal,f
7,2,17,6,0,1,1,Hit,1.234055,Male,25,Portugal,f
7,2,18,7,0,1,1,Hit,0.8737,Male,25,Portugal,f
7,2,19,6,0,1,1,Hit,0.813425,Male,25,Portugal,f
7,2,20,7,0,0,1,CO,1.00406,Male,25,Portugal,f
7,2,21,5,0,0,1,CO,0.88922,Male,25,Portugal,f
7,2,22,5,0,1,0,miss,0.618085,Male,25,Portugal,f
7,2,23,7,0,0,0,FA,0.68837,Male,25,Portugal,f
7,2,24,6,0,0,1,CO,0.869835,Male,25,Portugal,f
7,2,25,7,0,1,0,miss,0.916585,Male,25,Portugal,f
7,2,26,5,0,1,0,miss,1.0175,Male,25,Portugal,f
7,2,27,5,0,0,1,CO,0.6103,Male,25,Portugal,f
7,2,28,5,0,0,1,CO,0.95607,Male,25,Portugal,f
7,2,29,6,0,0,1,CO,0.81117,Male,25,Portugal,f
7,2,30,5,0,1,1,Hit,0.834005,Male,25,Portugal,f
7,3,1,5,7,1,1,Hit,1.458035,Male,25,Portugal,f
7,3,2,6,7,0,1,CO,0.82828,Male,25,Portugal,f
7,3,3,7,7,1,1,Hit,0.9124,Male,25,Portugal,f
7,3,4,7,7,0,1,CO,0.743475,Male,25,Portugal,f
7,3,5,5,7,0,1,CO,0.680525,Male,25,Portugal,f
7,3,6,5,7,1,1,Hit,0.85235,Male,25,Portugal,f
7,3,7,6,7,1,0,miss,0.795455,Male,25,Portugal,f
7,3,8,7,7,0,1,CO,0.722495,Male,25,Portugal,f
7,3,9,7,7,1,0,miss,0.69672,Male,25,Portugal,f
7,3,10,5,7,0,1,CO,0.635685,Male,25,Portugal,f
7,3,11,7,7,0,1,CO,0.90374,Male,25,Portugal,f
7,3,12,5,7,0,1,CO,0.76202,Male,25,Portugal,f
7,3,13,7,7,1,0,miss,1.00642,Male,25,Portugal,f
7,3,14,5,7,0,0,FA,0.863665,Male,25,Portugal,f
7,3,15,6,7,1,0,miss,1.1663,Male,25,Portugal,f
7,3,16,6,7,1,1,Hit,0.650205,Male,25,Portugal,f
7,3,17,6,7,0,1,CO,0.88103,Male,25,Portugal,f
7,3,18,5,7,1,1,Hit,0.744815,Male,25,Portugal,f
7,3,19,7,7,1,1,Hit,0.874095,Male,25,Portugal,f
7,3,20,6,7,0,1,CO,0.8226,Male,25,Portugal,f
7,3,21,5,7,1,1,Hit,0.76811,Male,25,Portugal,f
7,3,22,5,7,0,1,CO,0.900165,Male,25,Portugal,f
7,3,23,6,7,1,0,miss,1.14328,Male,25,Portugal,f
7,3,24,5,7,1,0,miss,1.106315,Male,25,Portugal,f
7,3,25,7,7,1,0,miss,0.82123,Male,25,Portugal,f
7,3,26,7,7,0,1,CO,0.871475,Male,25,Portugal,f
7,3,27,6,7,0,1,CO,0.86298,Male,25,Portugal,f
7,3,28,6,7,1,1,Hit,0.741785,Male,25,Portugal,f
7,3,29,7,7,0,1,CO,1.10953,Male,25,Portugal,f
7,3,30,6,7,0,1,CO,0.839795,Male,25,Portugal,f
7,4,1,5,7,1,1,Hit,0.700565,Male,25,Portugal,f
7,4,2,7,7,0,0,FA,1.52113,Male,25,Portugal,f
7,4,3,6,7,1,1,Hit,0.627385,Male,25,Portugal,f
7,4,4,6,7,1,0,miss,0.609,Male,25,Portugal,f
7,4,5,7,7,1,0,miss,1.51583,Male,25,Portugal,f
7,4,6,7,7,0,1,CO,0.886245,Male,25,Portugal,f
7,4,7,5,7,1,0,miss,0.80328,Male,25,Portugal,f
7,4,8,5,7,1,1,Hit,0.55013,Male,25,Portugal,f
7,4,9,5,7,0,0,FA,0.97292,Male,25,Portugal,f
7,4,10,5,7,0,1,CO,0.73081,Male,25,Portugal,f
7,4,11,6,7,0,1,CO,0.684815,Male,25,Portugal,f
7,4,12,5,7,0,1,CO,1.248655,Male,25,Portugal,f
7,4,13,7,7,1,1,Hit,0.870665,Male,25,Portugal,f
7,4,14,7,7,0,1,CO,2.13079,Male,25,Portugal,f
7,4,15,6,7,0,1,CO,0.80113,Male,25,Portugal,f
7,4,16,6,7,0,0,FA,1.457755,Male,25,Portugal,f
7,4,17,6,7,1,1,Hit,0.710305,Male,25,Portugal,f
7,4,18,6,7,1,1,Hit,0.571335,Male,25,Portugal,f
7,4,19,7,7,0,1,CO,0.637035,Male,25,Portugal,f
7,4,20,5,7,1,1,Hit,0.83259,Male,25,Portugal,f
7,4,21,7,7,0,1,CO,0.823905,Male,25,Portugal,f
7,4,22,5,7,0,1,CO,0.82181,Male,25,Portugal,f
7,4,23,7,7,1,1,Hit,0.91606,Male,25,Portugal,f
7,4,24,6,7,1,1,Hit,1.05215,Male,25,Portugal,f
7,4,25,7,7,1,0,miss,0.976605,Male,25,Portugal,f
7,4,26,5,7,1,1,Hit,0.622705,Male,25,Portugal,f
7,4,27,6,7,0,1,CO,0.684895,Male,25,Portugal,f
7,4,28,5,7,0,1,CO,1.171695,Male,25,Portugal,f
7,4,29,6,7,0,0,FA,0.93807,Male,25,Portugal,f
7,4,30,7,7,1,1,Hit,0.582625,Male,25,Portugal,f
7,5,1,5,7,1,1,Hit,0.641815,Male,25,Portugal,f
7,5,2,7,7,1,1,Hit,1.2166,Male,25,Portugal,f
7,5,3,6,7,1,1,Hit,0.53297,Male,25,Portugal,f
7,5,4,6,7,0,1,CO,1.57253,Male,25,Portugal,f
7,5,5,7,7,0,1,CO,0.99644,Male,25,Portugal,f
7,5,6,5,7,1,0,miss,0.682725,Male,25,Portugal,f
7,5,7,6,7,1,0,miss,0.541285,Male,25,Portugal,f
7,5,8,5,7,1,1,Hit,0.82255,Male,25,Portugal,f
7,5,9,6,7,0,1,CO,0.666425,Male,25,Portugal,f
7,5,10,7,7,0,1,CO,0.626835,Male,25,Portugal,f
7,5,11,6,7,1,0,miss,0.63467,Male,25,Portugal,f
7,5,12,7,7,1,0,miss,0.683835,Male,25,Portugal,f
7,5,13,7,7,1,1,Hit,0.54486,Male,25,Portugal,f
7,5,14,7,7,0,1,CO,0.672795,Male,25,Portugal,f
7,5,15,5,7,0,1,CO,0.61581,Male,25,Portugal,f
7,5,16,5,7,0,1,CO,0.692635,Male,25,Portugal,f
7,5,17,7,7,1,1,Hit,0.77602,Male,25,Portugal,f
7,5,18,7,7,0,1,CO,0.990175,Male,25,Portugal,f
7,5,19,5,7,0,1,CO,1.26212,Male,25,Portugal,f
7,5,20,7,7,0,1,CO,0.99608,Male,25,Portugal,f
7,5,21,6,7,1,1,Hit,0.635755,Male,25,Portugal,f
7,5,22,5,7,0,1,CO,1.490525,Male,25,Portugal,f
7,5,23,7,7,1,1,Hit,0.4799,Male,25,Portugal,f
7,5,24,5,7,1,0,miss,0.6365,Male,25,Portugal,f
7,5,25,6,7,0,1,CO,0.539515,Male,25,Portugal,f
7,5,26,5,7,0,0,FA,1.15692,Male,25,Portugal,f
7,5,27,6,7,0,1,CO,0.582495,Male,25,Portugal,f
7,5,28,6,7,0,1,CO,0.632905,Male,25,Portugal,f
7,5,29,6,7,1,1,Hit,0.472055,Male,25,Portugal,f
7,5,30,5,7,1,0,miss,1.23854,Male,25,Portugal,f
7,6,1,7,0,1,0,miss,1.205115,Male,25,Portugal,f
7,6,2,6,0,1,1,Hit,0.61786,Male,25,Portugal,f
7,6,3,5,0,0,1,CO,1.072125,Male,25,Portugal,f
7,6,4,7,0,0,1,CO,1.03798,Male,25,Portugal,f
7,6,5,7,0,0,0,FA,0.775455,Male,25,Portugal,f
7,6,6,6,0,1,0,miss,0.817695,Male,25,Portugal,f
7,6,7,5,0,0,1,CO,0.79536,Male,25,Portugal,f
7,6,8,7,0,1,1,Hit,0.49266,Male,25,Portugal,f
7,6,9,6,0,0,1,CO,1.03266,Male,25,Portugal,f
7,6,10,5,0,1,1,Hit,0.4826,Male,25,Portugal,f
7,6,11,6,0,1,1,Hit,0.58289,Male,25,Portugal,f
7,6,12,7,0,1,0,miss,1.73833,Male,25,Portugal,f
7,6,13,7,0,0,1,CO,0.717295,Male,25,Portugal,f
7,6,14,5,0,0,1,CO,0.609605,Male,25,Portugal,f
7,6,15,6,0,1,1,Hit,0.55017,Male,25,Portugal,f
7,6,16,7,0,0,0,FA,0.78519,Male,25,Portugal,f
7,6,17,5,0,0,1,CO,0.67631,Male,25,Portugal,f
7,6,18,7,0,1,0,miss,0.64431,Male,25,Portugal,f
7,6,19,5,0,1,0,miss,0.633715,Male,25,Portugal,f
7,6,20,7,0,1,0,miss,0.805295,Male,25,Portugal,f
7,6,21,6,0,0,1,CO,0.621675,Male,25,Portugal,f
7,6,22,5,0,1,0,miss,0.809855,Male,25,Portugal,f
7,6,23,5,0,1,0,miss,0.538285,Male,25,Portugal,f
7,6,24,5,0,0,1,CO,0.692105,Male,25,Portugal,f
7,6,25,7,0,0,1,CO,0.78513,Male,25,Portugal,f
7,6,26,6,0,1,1,Hit,0.924695,Male,25,Portugal,f
7,6,27,6,0,0,1,CO,0.693145,Male,25,Portugal,f
7,6,28,6,0,0,1,CO,0.49177,Male,25,Portugal,f
7,6,29,5,0,1,0,miss,0.439235,Male,25,Portugal,f
7,6,30,6,0,0,1,CO,1.00474,Male,25,Portugal,f
7,7,1,6,4,1,1,Hit,0.71031,Male,25,Portugal,f
7,7,2,5,4,0,1,CO,1.166665,Male,25,Portugal,f
7,7,3,6,4,1,1,Hit,1.182975,Male,25,Portugal,f
7,7,4,7,4,1,0,miss,0.81651,Male,25,Portugal,f
7,7,5,6,4,0,1,CO,0.790345,Male,25,Portugal,f
7,7,6,7,4,1,1,Hit,0.65774,Male,25,Portugal,f
7,7,7,5,4,1,0,miss,0.620405,Male,25,Portugal,f
7,7,8,7,4,0,1,CO,1.30453,Male,25,Portugal,f
7,7,9,5,4,1,1,Hit,0.897125,Male,25,Portugal,f
7,7,10,5,4,0,1,CO,1.204435,Male,25,Portugal,f
7,7,11,6,4,1,1,Hit,0.645385,Male,25,Portugal,f
7,7,12,7,4,1,1,Hit,1.249005,Male,25,Portugal,f
7,7,13,7,4,1,0,miss,0.7891,Male,25,Portugal,f
7,7,14,6,4,1,1,Hit,0.64479,Male,25,Portugal,f
7,7,15,5,4,1,1,Hit,0.691675,Male,25,Portugal,f
7,7,16,5,4,0,1,CO,0.82742,Male,25,Portugal,f
7,7,17,7,4,0,1,CO,1.03772,Male,25,Portugal,f
7,7,18,5,4,1,0,miss,0.806795,Male,25,Portugal,f
7,7,19,6,4,0,1,CO,0.93547,Male,25,Portugal,f
7,7,20,6,4,0,1,CO,0.79095,Male,25,Portugal,f
7,7,21,7,4,1,0,miss,0.81599,Male,25,Portugal,f
7,7,22,7,4,0,1,CO,0.783905,Male,25,Portugal,f
7,7,23,6,4,1,0,miss,0.64582,Male,25,Portugal,f
7,7,24,5,4,0,1,CO,0.58092,Male,25,Portugal,f
7,7,25,5,4,1,0,miss,0.492825,Male,25,Portugal,f
7,7,26,5,4,0,1,CO,0.63429,Male,25,Portugal,f
7,7,27,7,4,0,1,CO,0.969785,Male,25,Portugal,f
7,7,28,6,4,0,1,CO,0.629595,Male,25,Portugal,f
7,7,29,6,4,0,0,FA,0.4998,Male,25,Portugal,f
7,7,30,7,4,0,1,CO,0.640415,Male,25,Portugal,f
7,8,1,7,4,1,0,miss,0.65986,Male,25,Portugal,f
7,8,2,7,4,1,1,Hit,0.540555,Male,25,Portugal,f
7,8,3,7,4,1,0,miss,0.82806,Male,25,Portugal,f
7,8,4,6,4,0,1,CO,0.67981,Male,25,Portugal,f
7,8,5,6,4,0,0,FA,0.77569,Male,25,Portugal,f
7,8,6,7,4,0,1,CO,0.88888,Male,25,Portugal,f
7,8,7,5,4,1,1,Hit,0.48286,Male,25,Portugal,f
7,8,8,7,4,0,1,CO,0.61854,Male,25,Portugal,f
7,8,9,7,4,0,1,CO,0.61265,Male,25,Portugal,f
7,8,10,6,4,1,0,miss,0.55372,Male,25,Portugal,f
7,8,11,5,4,0,1,CO,0.9219,Male,25,Portugal,f
7,8,12,7,4,1,1,Hit,0.666175,Male,25,Portugal,f
7,8,13,5,4,1,1,Hit,0.926265,Male,25,Portugal,f
7,8,14,5,4,0,1,CO,1.04411,Male,25,Portugal,f
7,8,15,5,4,0,1,CO,0.609355,Male,25,Portugal,f
7,8,16,6,4,1,0,TimeOut,NaN,Male,25,Portugal,f
7,8,17,6,4,0,1,CO,0.552345,Male,25,Portugal,f
7,8,18,5,4,1,0,miss,0.763015,Male,25,Portugal,f
7,8,19,7,4,1,0,miss,0.683475,Male,25,Portugal,f
7,8,20,7,4,0,0,FA,0.933285,Male,25,Portugal,f
7,8,21,7,4,0,1,CO,0.82621,Male,25,Portugal,f
7,8,22,6,4,1,0,miss,0.58435,Male,25,Portugal,f
7,8,23,6,4,0,1,CO,0.82203,Male,25,Portugal,f
7,8,24,5,4,0,1,CO,0.60378,Male,25,Portugal,f
7,8,25,5,4,1,0,miss,0.516455,Male,25,Portugal,f
7,8,26,6,4,1,0,miss,1.186845,Male,25,Portugal,f
7,8,27,5,4,0,1,CO,0.623835,Male,25,Portugal,f
7,8,28,5,4,1,1,Hit,0.46606,Male,25,Portugal,f
7,8,29,6,4,1,1,Hit,0.49923,Male,25,Portugal,f
7,8,30,6,4,0,1,CO,0.56295,Male,25,Portugal,f
7,9,1,5,0,1,1,Hit,1.351825,Male,25,Portugal,f
7,9,2,6,0,0,0,FA,0.716125,Male,25,Portugal,f
7,9,3,7,0,0,0,FA,0.990115,Male,25,Portugal,f
7,9,4,7,0,1,0,miss,0.585765,Male,25,Portugal,f
7,9,5,7,0,0,1,CO,0.600855,Male,25,Portugal,f
7,9,6,5,0,0,1,CO,0.405485,Male,25,Portugal,f
7,9,7,5,0,1,1,Hit,0.691885,Male,25,Portugal,f
7,9,8,6,0,1,0,miss,1.025915,Male,25,Portugal,f
7,9,9,7,0,1,0,miss,0.78262,Male,25,Portugal,f
7,9,10,5,0,1,1,Hit,0.638945,Male,25,Portugal,f
7,9,11,5,0,0,1,CO,0.72254,Male,25,Portugal,f
7,9,12,6,0,0,1,CO,0.818205,Male,25,Portugal,f
7,9,13,6,0,1,1,Hit,0.788075,Male,25,Portugal,f
7,9,14,6,0,1,1,Hit,0.834,Male,25,Portugal,f
7,9,15,5,0,1,0,miss,0.713035,Male,25,Portugal,f
7,9,16,7,0,0,1,CO,0.641435,Male,25,Portugal,f
7,9,17,5,0,1,0,miss,1.17958,Male,25,Portugal,f
7,9,18,6,0,1,0,miss,0.849275,Male,25,Portugal,f
7,9,19,6,0,0,0,FA,0.771025,Male,25,Portugal,f
7,9,20,5,0,0,0,FA,0.78607,Male,25,Portugal,f
7,9,21,7,0,1,0,miss,0.601295,Male,25,Portugal,f
7,9,22,5,0,0,1,CO,1.11989,Male,25,Portugal,f
7,9,23,6,0,1,1,Hit,1.024305,Male,25,Portugal,f
7,9,24,5,0,0,1,CO,0.93589,Male,25,Portugal,f
7,9,25,6,0,0,1,CO,1.05529,Male,25,Portugal,f
7,9,26,7,0,1,0,miss,1.140405,Male,25,Portugal,f
7,9,27,7,0,0,1,CO,0.687475,Male,25,Portugal,f
7,9,28,7,0,1,1,Hit,0.5106,Male,25,Portugal,f
7,9,29,6,0,0,1,CO,0.7196,Male,25,Portugal,f
7,9,30,7,0,0,1,CO,0.743755,Male,25,Portugal,f
8,1,1,6,4,1,1,Hit,1.07786,Male,27,Greece,j
8,1,2,5,4,1,1,Hit,0.91824,Male,27,Greece,j
8,1,3,5,4,0,1,CO,0.734775,Male,27,Greece,j
8,1,4,5,4,0,0,FA,1.17451,Male,27,Greece,j
8,1,5,6,4,1,1,Hit,0.88502,Male,27,Greece,j
8,1,6,6,4,0,1,CO,0.68919,Male,27,Greece,j
8,1,7,7,4,1,1,Hit,1.001155,Male,27,Greece,j
8,1,8,7,4,0,1,CO,0.7512,Male,27,Greece,j
8,1,9,5,4,0,1,CO,0.84905,Male,27,Greece,j
8,1,10,5,4,1,1,Hit,0.678365,Male,27,Greece,j
8,1,11,6,4,1,1,Hit,0.65783,Male,27,Greece,j
8,1,12,5,4,0,1,CO,0.774905,Male,27,Greece,j
8,1,13,5,4,1,1,Hit,0.62859,Male,27,Greece,j
8,1,14,6,4,0,1,CO,1.03583,Male,27,Greece,j
8,1,15,7,4,1,1,Hit,0.85286,Male,27,Greece,j
8,1,16,7,4,1,1,Hit,1.19635,Male,27,Greece,j
8,1,17,5,4,0,0,FA,1.307255,Male,27,Greece,j
8,1,18,7,4,0,1,CO,0.72472,Male,27,Greece,j
8,1,19,7,4,1,1,Hit,0.87021,Male,27,Greece,j
8,1,20,6,4,0,0,FA,1.30808,Male,27,Greece,j
8,1,21,5,4,1,1,Hit,0.856365,Male,27,Greece,j
8,1,22,6,4,0,1,CO,1.18598,Male,27,Greece,j
8,1,23,6,4,1,1,Hit,0.852505,Male,27,Greece,j
8,1,24,5,4,1,1,Hit,0.80654,Male,27,Greece,j
8,1,25,7,4,1,0,miss,0.652565,Male,27,Greece,j
8,1,26,7,4,0,1,CO,0.775395,Male,27,Greece,j
8,1,27,7,4,0,1,CO,0.813155,Male,27,Greece,j
8,1,28,7,4,0,1,CO,0.7521,Male,27,Greece,j
8,1,29,6,4,1,0,miss,0.737605,Male,27,Greece,j
8,1,30,6,4,0,1,CO,0.70172,Male,27,Greece,j
8,2,1,7,0,0,0,FA,0.941975,Male,27,Greece,j
8,2,2,5,0,0,1,CO,0.670535,Male,27,Greece,j
8,2,3,7,0,0,1,CO,0.72493,Male,27,Greece,j
8,2,4,6,0,1,1,Hit,0.68469,Male,27,Greece,j
8,2,5,5,0,0,1,CO,0.636285,Male,27,Greece,j
8,2,6,5,0,0,1,CO,0.690555,Male,27,Greece,j
8,2,7,6,0,0,1,CO,0.7012,Male,27,Greece,j
8,2,8,5,0,1,1,Hit,0.52648,Male,27,Greece,j
8,2,9,7,0,0,1,CO,0.65571,Male,27,Greece,j
8,2,10,5,0,0,1,CO,0.609625,Male,27,Greece,j
8,2,11,5,0,0,1,CO,0.584435,Male,27,Greece,j
8,2,12,7,0,0,0,FA,0.60795,Male,27,Greece,j
8,2,13,7,0,1,1,Hit,1.05932,Male,27,Greece,j
8,2,14,7,0,1,1,Hit,0.54546,Male,27,Greece,j
8,2,15,6,0,0,1,CO,1.077655,Male,27,Greece,j
8,2,16,7,0,1,1,Hit,0.81164,Male,27,Greece,j
8,2,17,6,0,0,0,FA,1.15704,Male,27,Greece,j
8,2,18,6,0,0,1,CO,0.603765,Male,27,Greece,j
8,2,19,7,0,1,1,Hit,0.713525,Male,27,Greece,j
8,2,20,6,0,1,1,Hit,0.713965,Male,27,Greece,j
8,2,21,7,0,0,1,CO,0.810715,Male,27,Greece,j
8,2,22,5,0,1,1,Hit,0.83472,Male,27,Greece,j
8,2,23,7,0,1,1,Hit,0.56178,Male,27,Greece,j
8,2,24,6,0,1,1,Hit,1.09969,Male,27,Greece,j
8,2,25,5,0,1,1,Hit,0.628305,Male,27,Greece,j
8,2,26,6,0,1,1,Hit,0.55168,Male,27,Greece,j
8,2,27,6,0,1,1,Hit,0.67835,Male,27,Greece,j
8,2,28,5,0,1,1,Hit,0.526765,Male,27,Greece,j
8,2,29,6,0,0,1,CO,0.94511,Male,27,Greece,j
8,2,30,5,0,1,1,Hit,0.59835,Male,27,Greece,j
8,3,1,5,4,1,1,Hit,0.742765,Male,27,Greece,j
8,3,2,5,4,0,1,CO,0.82417,Male,27,Greece,j
8,3,3,6,4,1,1,Hit,0.808745,Male,27,Greece,j
8,3,4,7,4,1,0,miss,0.757465,Male,27,Greece,j
8,3,5,7,4,0,1,CO,0.70987,Male,27,Greece,j
8,3,6,7,4,1,1,Hit,0.66152,Male,27,Greece,j
8,3,7,7,4,0,0,FA,0.658905,Male,27,Greece,j
8,3,8,5,4,0,1,CO,0.70335,Male,27,Greece,j
8,3,9,5,4,1,1,Hit,0.59745,Male,27,Greece,j
8,3,10,5,4,0,0,FA,0.726405,Male,27,Greece,j
8,3,11,7,4,1,1,Hit,0.81221,Male,27,Greece,j
8,3,12,6,4,1,0,miss,0.82844,Male,27,Greece,j
8,3,13,5,4,0,1,CO,0.744735,Male,27,Greece,j
8,3,14,6,4,0,1,CO,1.129485,Male,27,Greece,j
8,3,15,6,4,1,1,Hit,0.7667,Male,27,Greece,j
8,3,16,5,4,0,1,CO,0.867905,Male,27,Greece,j
8,3,17,7,4,0,1,CO,0.845205,Male,27,Greece,j
8,3,18,7,4,1,1,Hit,0.912045,Male,27,Greece,j
8,3,19,6,4,0,0,FA,0.78762,Male,27,Greece,j
8,3,20,5,4,1,1,Hit,0.728835,Male,27,Greece,j
8,3,21,6,4,0,1,CO,0.73169,Male,27,Greece,j
8,3,22,5,4,1,0,miss,0.8939,Male,27,Greece,j
8,3,23,6,4,1,1,Hit,0.631685,Male,27,Greece,j
8,3,24,5,4,1,1,Hit,0.72735,Male,27,Greece,j
8,3,25,6,4,0,1,CO,0.484185,Male,27,Greece,j
8,3,26,6,4,0,1,CO,0.744615,Male,27,Greece,j
8,3,27,7,4,0,1,CO,0.88671,Male,27,Greece,j
8,3,28,6,4,1,1,Hit,0.715225,Male,27,Greece,j
8,3,29,7,4,0,1,CO,1.18694,Male,27,Greece,j
8,3,30,7,4,1,1,Hit,0.677205,Male,27,Greece,j
8,4,1,6,0,0,1,CO,0.616535,Male,27,Greece,j
8,4,2,5,0,0,1,CO,0.87766,Male,27,Greece,j
8,4,3,7,0,0,1,CO,0.66236,Male,27,Greece,j
8,4,4,5,0,1,1,Hit,0.54283,Male,27,Greece,j
8,4,5,6,0,0,1,CO,0.79778,Male,27,Greece,j
8,4,6,6,0,0,0,FA,1.017635,Male,27,Greece,j
8,4,7,6,0,0,1,CO,0.68047,Male,27,Greece,j
8,4,8,5,0,1,1,Hit,0.494305,Male,27,Greece,j
8,4,9,7,0,0,1,CO,0.845,Male,27,Greece,j
8,4,10,7,0,1,1,Hit,0.64714,Male,27,Greece,j
8,4,11,6,0,1,0,miss,0.594935,Male,27,Greece,j
8,4,12,7,0,1,1,Hit,0.74199,Male,27,Greece,j
8,4,13,5,0,0,1,CO,0.51709,Male,27,Greece,j
8,4,14,5,0,1,1,Hit,0.59481,Male,27,Greece,j
8,4,15,7,0,1,1,Hit,0.73569,Male,27,Greece,j
8,4,16,6,0,1,1,Hit,0.83598,Male,27,Greece,j
8,4,17,5,0,0,1,CO,0.595305,Male,27,Greece,j
8,4,18,6,0,1,1,Hit,0.653275,Male,27,Greece,j
8,4,19,5,0,1,1,Hit,0.745805,Male,27,Greece,j
8,4,20,5,0,1,1,Hit,0.711465,Male,27,Greece,j
8,4,21,7,0,0,1,CO,0.694295,Male,27,Greece,j
8,4,22,6,0,1,1,Hit,0.76173,Male,27,Greece,j
8,4,23,7,0,1,1,Hit,0.998845,Male,27,Greece,j
8,4,24,5,0,0,1,CO,0.599775,Male,27,Greece,j
8,4,25,7,0,0,1,CO,0.731205,Male,27,Greece,j
8,4,26,6,0,0,1,CO,0.78674,Male,27,Greece,j
8,4,27,7,0,1,0,miss,0.56168,Male,27,Greece,j
8,4,28,7,0,0,1,CO,0.600885,Male,27,Greece,j
8,4,29,6,0,1,0,miss,0.59403,Male,27,Greece,j
8,4,30,5,0,0,1,CO,0.6097,Male,27,Greece,j
8,5,1,5,7,0,1,CO,0.647265,Male,27,Greece,j
8,5,2,6,7,0,0,FA,0.64679,Male,27,Greece,j
8,5,3,5,7,0,1,CO,0.632805,Male,27,Greece,j
8,5,4,6,7,1,1,Hit,0.65035,Male,27,Greece,j
8,5,5,7,7,1,1,Hit,0.56368,Male,27,Greece,j
8,5,6,6,7,0,1,CO,0.610275,Male,27,Greece,j
8,5,7,7,7,0,1,CO,0.59616,Male,27,Greece,j
8,5,8,5,7,1,1,Hit,0.684475,Male,27,Greece,j
8,5,9,7,7,0,1,CO,0.56093,Male,27,Greece,j
8,5,10,7,7,0,1,CO,0.64178,Male,27,Greece,j
8,5,11,6,7,1,1,Hit,0.504585,Male,27,Greece,j
8,5,12,7,7,1,1,Hit,0.513635,Male,27,Greece,j
8,5,13,7,7,1,1,Hit,0.68494,Male,27,Greece,j
8,5,14,6,7,1,1,Hit,0.661795,Male,27,Greece,j
8,5,15,6,7,1,1,Hit,0.59414,Male,27,Greece,j
8,5,16,7,7,1,1,Hit,0.644495,Male,27,Greece,j
8,5,17,5,7,1,1,Hit,0.47059,Male,27,Greece,j
8,5,18,5,7,1,1,Hit,0.46197,Male,27,Greece,j
8,5,19,5,7,0,0,FA,0.44434,Male,27,Greece,j
8,5,20,6,7,0,1,CO,0.67776,Male,27,Greece,j
8,5,21,7,7,0,1,CO,0.96324,Male,27,Greece,j
8,5,22,6,7,0,1,CO,0.67557,Male,27,Greece,j
8,5,23,6,7,1,1,Hit,0.52818,Male,27,Greece,j
8,5,24,7,7,1,1,Hit,0.639525,Male,27,Greece,j
8,5,25,5,7,0,0,FA,0.88853,Male,27,Greece,j
8,5,26,6,7,0,1,CO,0.597655,Male,27,Greece,j
8,5,27,7,7,0,0,FA,0.72651,Male,27,Greece,j
8,5,28,5,7,1,0,miss,0.614485,Male,27,Greece,j
8,5,29,5,7,1,1,Hit,0.894755,Male,27,Greece,j
8,5,30,5,7,0,1,CO,0.56467,Male,27,Greece,j
8,6,1,6,4,0,1,CO,0.800245,Male,27,Greece,j
8,6,2,7,4,0,1,CO,0.58371,Male,27,Greece,j
8,6,3,7,4,0,1,CO,0.64879,Male,27,Greece,j
8,6,4,6,4,1,1,Hit,0.60963,Male,27,Greece,j
8,6,5,7,4,1,1,Hit,0.471125,Male,27,Greece,j
8,6,6,6,4,0,1,CO,0.714715,Male,27,Greece,j
8,6,7,5,4,1,1,Hit,0.50965,Male,27,Greece,j
8,6,8,6,4,1,1,Hit,0.76492,Male,27,Greece,j
8,6,9,6,4,1,1,Hit,0.62785,Male,27,Greece,j
8,6,10,5,4,1,1,Hit,0.586915,Male,27,Greece,j
8,6,11,5,4,1,1,Hit,0.578745,Male,27,Greece,j
8,6,12,5,4,1,1,Hit,0.553535,Male,27,Greece,j
8,6,13,7,4,1,1,Hit,0.579295,Male,27,Greece,j
8,6,14,5,4,0,1,CO,0.79399,Male,27,Greece,j
8,6,15,7,4,0,1,CO,0.53123,Male,27,Greece,j
8,6,16,7,4,0,1,CO,0.600535,Male,27,Greece,j
8,6,17,5,4,1,1,Hit,0.696925,Male,27,Greece,j
8,6,18,5,4,0,1,CO,0.660805,Male,27,Greece,j
8,6,19,6,4,1,1,Hit,0.648485,Male,27,Greece,j
8,6,20,5,4,0,1,CO,0.68757,Male,27,Greece,j
8,6,21,6,4,0,0,FA,0.584485,Male,27,Greece,j
8,6,22,7,4,1,1,Hit,0.6573,Male,27,Greece,j
8,6,23,6,4,1,1,Hit,0.53756,Male,27,Greece,j
8,6,24,5,4,0,1,CO,0.70053,Male,27,Greece,j
8,6,25,7,4,0,0,FA,1.154105,Male,27,Greece,j
8,6,26,5,4,0,1,CO,0.59385,Male,27,Greece,j
8,6,27,6,4,0,1,CO,0.618255,Male,27,Greece,j
8,6,28,6,4,0,1,CO,0.50114,Male,27,Greece,j
8,6,29,7,4,1,1,Hit,0.777955,Male,27,Greece,j
8,6,30,7,4,1,1,Hit,0.59508,Male,27,Greece,j
8,7,1,6,0,1,1,Hit,0.530585,Male,27,Greece,j
8,7,2,5,0,0,1,CO,0.684255,Male,27,Greece,j
8,7,3,7,0,0,1,CO,0.711675,Male,27,Greece,j
8,7,4,7,0,1,0,miss,0.677785,Male,27,Greece,j
8,7,5,6,0,1,1,Hit,0.76227,Male,27,Greece,j
8,7,6,6,0,0,0,FA,0.807775,Male,27,Greece,j
8,7,7,6,0,0,1,CO,0.541865,Male,27,Greece,j
8,7,8,5,0,1,1,Hit,0.676295,Male,27,Greece,j
8,7,9,5,0,1,1,Hit,0.66603,Male,27,Greece,j
8,7,10,6,0,1,1,Hit,0.534385,Male,27,Greece,j
8,7,11,7,0,0,1,CO,0.65868,Male,27,Greece,j
8,7,12,7,0,0,1,CO,0.78683,Male,27,Greece,j
8,7,13,5,0,1,1,Hit,0.533685,Male,27,Greece,j
8,7,14,5,0,0,1,CO,0.77744,Male,27,Greece,j
8,7,15,5,0,1,1,Hit,0.794515,Male,27,Greece,j
8,7,16,7,0,0,1,CO,0.69769,Male,27,Greece,j
8,7,17,6,0,1,1,Hit,0.53091,Male,27,Greece,j
8,7,18,6,0,0,1,CO,0.648775,Male,27,Greece,j
8,7,19,5,0,0,0,FA,0.985455,Male,27,Greece,j
8,7,20,6,0,0,0,FA,0.78012,Male,27,Greece,j
8,7,21,7,0,0,1,CO,0.731185,Male,27,Greece,j
8,7,22,5,0,0,1,CO,0.731045,Male,27,Greece,j
8,7,23,5,0,1,1,Hit,0.5378,Male,27,Greece,j
8,7,24,5,0,0,1,CO,0.69493,Male,27,Greece,j
8,7,25,7,0,1,1,Hit,0.497835,Male,27,Greece,j
8,7,26,7,0,1,0,miss,0.58228,Male,27,Greece,j
8,7,27,7,0,1,0,miss,0.61079,Male,27,Greece,j
8,7,28,6,0,1,1,Hit,0.567025,Male,27,Greece,j
8,7,29,7,0,1,1,Hit,0.877395,Male,27,Greece,j
8,7,30,6,0,0,1,CO,0.678445,Male,27,Greece,j
8,8,1,5,7,0,0,FA,1.230215,Male,27,Greece,j
8,8,2,7,7,0,1,CO,0.734675,Male,27,Greece,j
8,8,3,7,7,0,1,CO,0.64236,Male,27,Greece,j
8,8,4,6,7,0,1,CO,1.41908,Male,27,Greece,j
8,8,5,5,7,1,0,miss,0.77636,Male,27,Greece,j
8,8,6,6,7,1,1,Hit,0.672555,Male,27,Greece,j
8,8,7,5,7,0,1,CO,0.66026,Male,27,Greece,j
8,8,8,6,7,1,1,Hit,0.731845,Male,27,Greece,j
