ID,Load,frequency,HR,FAR,Acc,RT,K,gender,dPrime,criterion,Acc_bsl,K_bsl,K_bsl_ave,HR_bsl,FAR_bsl,rP_mean_raw,rP_mean,rP_trial_var,rP_mean_bsl,rP_trial_CoV,rP_mean_bslSub_del,rP_trial_var_del,rP_trial_CoV_del,rP_mean_bslSub_del_raw
P03,5,0,0.733333333333333,0.2,0.766666666666667,0.861303437999858,3.33333333333333,M,1.464546956783,0.109347755181413,0,0,-0.0937839768879502,0.0826900237529692,0.131399317406143,3.06769597544068,-0.134110804563353,0.795577084282228,0,-6.65085324035425,0.367656254671109,0.579976791686812,2.07139702848559,0.0655883847779184
P03,6,0,0.529411764705882,0.153846153846154,0.666666666666667,0.904930259240466,2.66310160427807,M,1.09386750659447,0.473142479488964,0,0,-0.275996396508341,-0.218378859857482,-0.129692832764505,2.86959689588918,-0.0955890359230348,0.961999357595291,0,-10.2607548016697,0.351692376482035,0.400434084616226,1.79929579176849,0.0585577940748283
P03,7,0,0.769230769230769,0.176470588235294,0.8,0.930261159550078,5.03846153846154,M,1.6652154090234,0.0962917871355705,0,0,0.369780373396291,0.135688836104513,-0.00170648464163822,2.83023872893335,-0.33197033220252,0.677608164974817,0,-2.47964804299477,0.48904818374278,0.360044513866036,1.22694882363031,0.0814279317701991
P03,5,4,0.818181818181818,0.105263157894737,0.833333333333333,0.969081672719625,3.98395721925134,M,2.1605773888026,0.171830825863917,0.0869565217391304,0.195187165775401,0.0830977602435465,0.207959943856619,-0.404526675049398,2.82457321531829,0.26230352241016,0.729230211459938,0.396414326973513,3.25557874020878,0.562214066792742,0.40811906135018,1.13629666479176,0.0902670384759607
P03,6,4,0.631578947368421,0.272727272727273,0.666666666666667,0.945265860847253,2.96052631578947,M,0.94062348695506,0.134273603105707,0,0.111683576410907,-0.195137084736008,-0.0675396924615576,0.542817251008377,3.06109535121282,-0.171110660411651,0.834539683705267,-0.0755216244886158,-5.33883414004905,0.529893363187531,0.399268556958057,1.19246070028474,0.0945308269734169
P03,7,4,0.533333333333333,0.333333333333333,0.6,0.989853832444618,2.1,M,0.514379033202587,0.173537782694164,-0.25,-0.583206106870229,-0.429083905439408,-0.212589073634204,0.885665529010239,2.94546730510388,-0.249925277228054,0.61230924577206,0.0820450549744657,-3.13094346801497,0.57224736922889,0.427600755864643,1.14270841962684,0.098683722885537
P03,5,7,0.642857142857143,0.125,0.766666666666667,0.993500278072924,2.95918367346939,M,1.51645573717658,0.392121511787719,0,-0.112244897959183,-0.195502101931139,-0.0508886155412282,-0.29287542662116,2.92307535770724,-0.379771746483219,1.33890596818846,-0.245660941919865,-3.04685921144253,0.350564323714237,0.550835463922039,2.11710905651934,0.0604546118256316
P03,6,7,0.733333333333333,0.266666666666667,0.733333333333333,0.92748138277306,3.81818181818182,M,1.24585144642018,5.55111512312578e-17,0.1,0.433734939759036,0.0380292628374389,0.0826900237529692,0.508532423208191,2.84401595533116,-0.249225659700248,0.602427308693939,-0.153636623777213,-3.11429372781122,0.488552279760338,0.355995511491286,1.2212686726363,0.0813453623281909
P03,7,7,0.625,0.214285714285714,0.7,0.929550741694506,3.65909090909091,M,1.11027797170775,0.2364996218895,-0.125,-0.273768216516308,-0.0052219564474542,-0.077252820665083,0.212213554363725,2.86568072623725,-0.119109167330916,0.669789364768778,0.212861164871604,-6.87106307152308,0.475928100461253,0.453759427888892,1.4153748782887,0.0792434000987162
P04,5,0,0.818181818181818,0.105263157894737,0.866666666666667,0.838958363057856,3.98395721925134,F,2.1605773888026,0.171830825863917,0,0,-0.0735431275691733,0.071664829106946,-0.238670694864048,3.32580741425373,-0.0535209224854712,1.154776179007,0,-20.0782250587469,0.135580527089775,0.65074226940138,5.94986608136701,0.0228824390022718
P04,6,0,0.75,0.142857142857143,0.8,0.90400417564094,4.25,F,1.74206027407422,0.19654038684103,0,0,-0.0116757055511417,-0.0176405733186329,0.0332326283987915,3.23229328255317,0.0763861827163124,0.91746488877433,0,12.5394913174905,0.310936611198878,0.485600606715975,2.2411336132078,0.0506683649314423
P04,7,0,0.722222222222222,0.166666666666667,0.766666666666667,0.81402775127059,4.66666666666667,F,1.55687736395148,0.188982884125962,0,0,0.0852188331203148,-0.0540242557883132,0.205438066465257,3.24912761964555,0.179693477798096,1.18501532528847,0,6.0580055843338,0.0537820421668732,0.354365948701698,11.0684983050285,0.00876399896674232
P04,5,4,0.875,0.285714285714286,0.8,0.804579846685032,4.125,F,1.71629820230887,-0.292200279221573,-0.0769230769230769,0.0354026845637583,-0.0407440671525787,0.146085997794928,1.06646525679758,3.4642558209802,0.0825974469619758,0.754369999104044,0.136118369447447,10.5153947411109,-0.009056566837989,0.687235069872885,-91.5353950505801,-0.00158121836130124
P04,6,4,0.642857142857143,0.25,0.7,0.936210236122934,3.14285714285714,F,1.04059610699665,0.154191696697756,-0.125,-0.260504201680672,-0.269138336878155,-0.157977634273114,0.808157099697885,3.35207547083731,0.102119695932527,0.771867130206028,0.0257335132162149,8.60323449579995,0.0920083585728203,0.493145593936285,7.63238546225611,0.015528599113261
P04,7,4,0.733333333333333,0.333333333333333,0.7,0.990839388012758,4.2,F,1.05365302250555,-0.096099211957315,-0.0869565217391306,-0.1,-0.0233030501917167,-0.0394707828004411,1.41087613293051,3.42419104999792,-0.146877042539335,0.563549601626605,-0.326570520337432,-5.11107382967655,0.219285647033186,0.606443593223758,3.55128068712619,0.0382858645733458
P04,5,7,0.764705882352941,0.0769230769230769,0.833333333333333,0.772194807869464,3.72549019607843,F,2.14759915625519,0.352277294145252,-0.0384615384615384,-0.0648769574944073,-0.13364883070227,0.00162137622413892,-0.443643969323728,3.43619580759276,-0.0781187405916606,1.04928383410425,-0.0245978181061894,-13.1126738098333,0.404441167779028,0.735920663743687,2.12109511167115,0.0706128284589934
P04,6,7,0.636363636363636,0.157894736842105,0.766666666666667,0.833866638905005,3.40909090909091,F,1.35190366317958,0.327196136072745,-0.0416666666666667,-0.197860962566845,-0.207226501778991,-0.166482910694598,0.141993957703928,3.44239195209599,-0.0426297795444511,1.02317722014406,-0.119015962260764,-23.7280661546595,0.0827064594521426,0.454088047843493,8.147617001811,0.0144400162471482
P04,7,7,0.647058823529412,0.230769230769231,0.7,0.844968385395295,3.78823529411765,F,1.11370786120468,0.179461986773788,-0.0869565217391306,-0.188235294117647,-0.119057653114097,-0.152474220118036,0.669068092028817,3.43125964361488,-0.106391052679032,0.879884599174779,-0.286084530477128,-8.81673427869356,0.0552674164669071,0.663030299004758,14.7332149173091,0.00964933569888644
S01,5,0,0.833333333333333,0,0.933333333333333,0.796450569781737,4.16666666666667,F,Inf,Inf,0,0,-0.25,-0.0948275862068965,-1,3.05079572486602,0.0142307072409197,0.441279349423365,0,46.6799430814121,0.113975112952278,0.996819198890111,8.75988017805928,0.0311558094201065
S01,6,0,1,0.0909090909090909,0.966666666666667,1.06627987930919,6,F,Inf,-Inf,0,0,0.0799999999999999,0.0862068965517242,2,3.20184424109094,0.14847653569623,0.781197240011888,0,5.95281689647762,-0.163623129263998,1.08968291108168,-6.37977519737253,-0.0463839755112746
S01,7,0,0.928571428571429,0,0.966666666666667,0.972318135702036,6.5,F,Inf,Inf,0,0,0.17,0.0086206896551725,-1,3.38674081443044,0.0042474276086125,1.11158203298954,0,248.224573727513,-0.0111066939984296,0.81645752247652,-81.3545768739326,-0.00337342690716648
S01,5,4,0.933333333333333,0,0.933333333333333,0.947747816141705,4.66666666666667,F,Inf,Inf,0,0.12,-0.16,0.0137931034482759,-1,3.28129728850903,0.0296142915744754,0.874929891077696,0.0153835843335556,31.5853198377269,-0.292876483785963,1.6219284310972,-4.34841856758282,-0.0859899592070897
S01,6,4,0.928571428571429,0.0625,0.933333333333333,1.23027024825277,5.54285714285714,F,2.99935433703807,0.0344433758335119,-0.0344827586206896,-0.0761904761904762,-0.00228571428571444,0.0086206896551725,1.0625,3.22851856094756,0.242572301266545,0.567315431092546,0.0940957655703141,3.10506781724349,-0.538027302834285,1.1266762705716,-1.97285541752086,-0.152520278467462
S01,7,4,0.8125,0,0.866666666666667,1.1963566875482,5.6875,F,Inf,Inf,-0.103448275862069,-0.125,0.0237499999999999,-0.117456896551724,-1,3.14058042917391,0.342683795295647,0.666837781514253,0.338436367687034,2.38295878425229,-0.702014995194836,1.45079008801339,-1.71575748044847,-0.191900186223155
S01,5,7,1,0,1,0.917191524424621,5,F,Inf,NaN,0.0714285714285714,0.2,-0.1,0.0862068965517242,-1,3.13083311782637,-0.102020798200403,0.448592233437375,-0.116251505441323,-6.56503669736949,-0.611897667684736,0.825981017978305,-1.48527282649571,-0.17346109050085
S01,6,7,0.875,0,0.933333333333333,1.00654753503856,5.25,F,Inf,Inf,-0.0344827586206896,-0.125,-0.0550000000000001,-0.0495689655172413,-1,3.31529853541326,0.145420436029863,1.06799756076748,-0.00305609966636794,7.10656426760548,-0.421338927505495,1.18075147109605,-2.57897814737846,-0.123707157093003
S01,7,7,0.928571428571429,0,0.933333333333333,1.30175335529285,6.5,F,Inf,Inf,-0.0344827586206896,0,0.17,0.0086206896551725,-1,3.20766203708402,0.168999269578228,0.602471057993607,0.164751841969616,4.59286062798406,-0.27939541934824,0.953981733204826,-3.49583356447683,-0.0792031685697777
S02,5,0,0.866666666666667,0.133333333333333,0.866666666666667,1.07909645348763,4.23076923076923,F,2.22154323327357,-1.11022302462516e-16,0,0,0.22760245520491,0.353998760074395,0.181019332161687,3.02539783691546,-0.0177541154938407,0.829428373781622,0,-51.2968152962716,0.0417778089880595,1.41642991761304,28.4873391305195,0.0108403761940208
S02,6,0,0.625,0.142857142857143,0.733333333333333,1.19377285923975,3.375,F,1.38620988784252,0.374465579956883,0,0,-0.0207080414160829,-0.023558586484811,0.265377855887522,2.90404770811118,-0.0857144599678248,0.65336681584787,0,-9.43027686154643,0.0519187636573131,2.3577674167829,29.5750943498969,0.0130071775768186
S02,7,0,0.428571428571429,0.0625,0.666666666666667,1.18932427286035,2.73333333333333,F,1.35410817455984,0.857066457072626,0,0,-0.206894413788828,-0.330440173589585,-0.446397188049209,3.07511865173866,-0.221175464628743,0.88750590426846,0,-4.25940245816727,0.359502018047911,1.54336370162626,3.45567434114697,0.0964991045331795
S02,5,4,0.727272727272727,0.0526315789473684,0.866666666666667,1.11733525427283,3.56060606060606,F,2.22444160522151,0.507635456027516,0,-0.158402203856749,0.0331475208404962,0.136222735726765,-0.533808158357229,3.00211302572534,-0.107491627994594,0.617788103787012,-0.0897375125007535,-7.31215064476673,0.694608796884809,0.478243565659421,0.995598626296153,0.18023493448543
S02,6,4,0.466666666666667,0.0666666666666667,0.7,1.08140505969275,2.57142857142857,F,1.4174342121369,0.792368839975577,-0.0454545454545454,-0.238095238095238,-0.253872793459873,-0.270923744575326,-0.409490333919156,2.85137239096803,-0.295970476323217,0.368397272580807,-0.210256016355392,-2.05073626588619,0.956106949231024,1.26223099076816,1.17506785166805,0.239532916329884
S02,7,4,0.578947368421053,0.181818181818182,0.666666666666667,1.16987698642317,3.39766081871345,F,1.10765919332665,0.354628271874059,0,0.243046640992726,-0.0141327651076353,-0.0955069011648775,0.61048090749321,2.89372253281544,-0.126927884842966,0.442491019509762,0.0942475797857771,-5.24077105217202,0.452930991802414,0.995998207543779,2.20341976156706,0.113472537198769
S02,5,7,0.733333333333333,0.266666666666667,0.733333333333333,1.23030029487814,3.18181818181818,F,1.24585144642018,5.55111512312578e-17,-0.153846153846154,-0.247933884297521,-0.0767617898872164,0.145691258524488,1.36203866432337,3.06911620788575,-0.243537233567229,0.630382198936132,-0.225783118073389,-3.26014263972835,0.315041071803522,1.10970453944151,3.34377083136108,0.0845647028222283
S02,6,7,0.230769230769231,0.117647058823529,0.6,1.24433330022429,0.769230769230769,F,0.450515515379688,0.961573675065974,-0.181818181818182,-0.772079772079772,-0.776799553599107,-0.639467785779007,0.0420758813191357,3.02247271610273,-0.417304954064893,0.507380183533981,-0.331590494097069,-1.70692016920251,0.486503297220224,0.839459002611571,1.88327593752927,0.130589343528899
S02,7,7,0.588235294117647,0.153846153846154,0.7,1.11937917928223,3.59358288770053,F,1.24308406372657,0.398534200922917,0.05,0.314725446719708,0.0427160961273794,-0.0809963166915868,0.362714614032716,3.03889596524293,0.0342664248331897,0.651485964466552,0.255441889461932,23.5550340810054,0.241976088375848,0.95904862608713,4.04713658848076,0.062787204295505
S03,5,0,0.894736842105263,0.181818181818182,0.833333333333333,0.969723925147555,4.35672514619883,F,2.1605773888026,-0.171830825863917,0,0,0.154572265845137,0.343605300973974,1.3265306122449,2.27291863708454,0.0476203031945786,1.26275423760645,0,23.5975688074802,-0.636497061072271,1.09729094403408,-1.64575239122476,-0.100426315187304
S03,6,0,0.636363636363636,0.0526315789473684,0.833333333333333,1.09746581868554,3.6969696969697,F,1.96861195415531,0.635550281560613,0,0,-0.0202690010143895,-0.0443876736388314,-0.326530612244898,2.21655507528233,0.210702566987256,0.791915083399059,0,4.22347065310881,-0.809557063342443,0.868826596294948,-1.15138107598511,-0.123169825013246
S03,7,0,0.466666666666667,0,0.733333333333333,1.13461540253871,3.26666666666667,F,Inf,Inf,0,0,-0.134303264830747,-0.299217627335143,-1,2.18899712951927,0.0295727355428092,1.04956612188411,0,34.6428331729843,-0.677859997980186,0.519620352664686,-1.0634157069483,-0.103132813133621
S03,5,4,1,0,1,0.947106836491342,5,F,Inf,NaN,0.2,0.147651006711409,0.325046023218244,0.501676512853265,-1,2.20827490379529,0.156279567585439,0.35188690123805,0.10865926439086,3.79576528469568,-0.260381295727542,0.824504719823119,-3.48727976023043,-0.0396156368509351
S03,6,4,0.916666666666667,0.0555555555555556,0.933333333333333,1.09978985351503,5.47058823529412,F,2.97621294512369,0.105112345461206,0.12,0.479749276759885,0.449756237168196,0.376536803448826,-0.289115646258503,2.12937589083869,0.17599803008503,0.568729167399798,-0.0347045369022261,4.28494196258702,-0.497853723652777,0.605202806037328,-1.56260319061626,-0.0729404102486552
S03,7,4,0.6,0.2,0.666666666666667,1.1721536115357,3.5,F,1.09496833670871,0.294137065218557,-0.0909090909090909,0.0714285714285713,-0.0724677837472293,-0.098994092288041,1.55918367346939,2.16075755119348,0.390193102593952,0.558817833752335,0.360620367051143,1.91582369611572,-1.0456161580227,1.02510993943208,-0.968306698932521,-0.15319293178972
S03,5,7,0.941176470588235,0.0769230769230769,0.933333333333333,0.932226271742353,4.68137254901961,F,2.99080334363465,-0.0693247995444757,0.12,0.0745163837347019,0.240606815856297,0.413342600332485,-0.0156985871271585,2.33936281545989,-0.0425275734902775,0.666081488002915,-0.0901478766848561,-19.19079994441,-0.358815400812453,0.55700962471952,-2.07998534244945,-0.0586357071415335
S03,6,7,0.769230769230769,0.117647058823529,0.833333333333333,1.0414312856371,4.43076923076923,F,1.92314735013195,0.225257757689844,0,0.198486759142497,0.174194629805705,0.155135779117896,0.505402160864346,2.33494422909803,-0.0695666749822498,0.743062417646104,-0.280269241969506,-12.3911439384322,-0.795730995694168,0.714706889006647,-1.06242359906632,-0.130034133209772
S03,7,7,0.533333333333333,0.133333333333333,0.7,0.958085038084362,3.23076923076923,F,1.19442335054391,0.513559941364828,-0.0454545454545454,-0.0109890109890109,-0.143816415766673,-0.199105859811592,0.706122448979592,2.22083021401335,0.238801728093453,0.761216755609352,0.209228992550644,3.6535638740285,-0.485925427243785,0.996204754995939,-2.05402005663491,-0.0739309834392575
S04,5,0,0.571428571428571,0.125,0.733333333333333,0.853225480800058,2.55102040816327,M,1.33036175016871,0.485168505291652,0,0,-0.280646415687854,-0.13375796178344,-0.309734513274336,3.30268855630485,-0.170093427618952,0.825530476287859,0,-5.34169420657117,-0.215511996412491,0.536395306504638,-3.39837292081657,-0.0398649023029753
S04,6,0,0.764705882352941,0.230769230769231,0.766666666666667,0.808491009383058,4.16470588235294,M,1.45783820135847,0.00739681669689324,0,0,0.174391272797975,0.159235668789809,0.274336283185841,3.16321241204044,-0.334436819663792,0.709203089471723,0,-2.51808986223342,-0.327437800092149,0.683557312602321,-2.52498413107609,-0.0585497184564658
S04,7,0,0.642857142857143,0.1875,0.733333333333333,0.888104115026403,3.92307692307692,M,1.25325291581945,0.260520101109153,0,0,0.106255142889879,-0.0254777070063693,0.0353982300884954,3.30085978545687,-0.179979869919336,0.870555496350293,0,-5.18411106480689,0.0535031827275195,0.350902792216713,11.0716868680972,0.00989689292399504
S04,5,4,0.615384615384615,0.235294117647059,0.666666666666667,0.858780346275957,2.48520710059172,M,1.01490351610354,0.214070525930575,-0.0909090909090909,-0.0257988165680472,-0.29920488685709,-0.067123958843704,0.299323269130661,3.38063336822822,0.251280790231514,0.441072747130566,0.421374217850465,2.64299184498336,0.0499635537855753,0.481907606634304,13.8940407924682,0.0092421406860296
S04,6,4,0.583333333333333,0.0555555555555556,0.8,1.02371761078854,3.35294117647059,M,1.80364721227098,0.691395211887563,0.0434782608695652,-0.194915254237288,-0.0545155007134945,-0.115711252653928,-0.693215339233038,3.1667289612316,0.317724054650407,0.892113198840579,0.652160874314199,2.97276025687136,-0.0699907946679495,0.306933698185699,-7.91555483103008,-0.012083617101565
S04,7,4,0.8,0.2,0.8,1.06819103113338,5.25,M,1.68324246714583,-5.55111512312578e-17,0.0909090909090911,0.338235294117647,0.480429676514397,0.212738853503185,0.104424778761062,3.42439364885882,0.48785143000375,0.627811195939426,0.667831299923086,1.62415302681321,0.0588519905626408,0.70393081706688,14.2562017429742,0.0108863028191936
S04,5,7,0.571428571428571,0.1875,0.7,0.945101545066734,2.36263736263736,M,1.06715892881158,0.353567094613086,-0.0454545454545454,-0.0738461538461538,-0.333767911144751,-0.13375796178344,0.0353982300884954,3.21003520892721,-0.0725815279400128,0.383746404151209,0.0975118996789391,-8.53485314941889,-0.142548169710937,0.455649239265695,-4.7353673929427,-0.0254892843792349
S04,6,7,0.5,0.1875,0.633333333333333,0.844009296143018,2.30769230769231,M,0.887146559018876,0.443573279509438,-0.173913043478261,-0.445893089960886,-0.349261680653012,-0.24203821656051,0.0353982300884954,3.23162326346708,0.0481491138659427,1.17087409099123,0.382585933529735,22.4732974093542,-0.0283237785792019,0.531207795946706,-25.7324435897869,-0.00506462375745514
S04,7,7,0.647058823529412,0.230769230769231,0.7,0.814163493266684,3.78823529411765,M,1.11370786120468,0.179461986773788,-0.0454545454545454,-0.0343713956170702,0.0682316097201924,-0.019108280254777,0.274336283185841,3.3078053063785,-0.142431977074393,0.630685348276693,0.0375478928449436,-5.57569319133717,-0.140542926821566,0.767296351446755,-6.23264761256473,-0.0259973001057086
S05,5,0,0.866666666666667,0.0666666666666667,0.9,0.709171855635665,4.28571428571429,F,2.61185756268081,0.19515716470362,0,0,-0.0528233151183969,0.11971289412971,0.448275862068965,3.05566226713694,-0.258564880354175,0.602305811689071,0,-3.0015044424517,0.125893913344653,0.464600750158817,5.41421153484757,0.0371548086216202
S05,6,0,0.8125,0.0714285714285714,0.866666666666667,0.644758243733547,4.78846153846154,F,2.3523803517044,0.289043616833323,0,0,0.058287795992714,0.0497308382466034,0.551724137931034,3.15583459785496,0.0808551621866534,0.798008183241409,0,11.0483117403329,0.0958255572979736,0.886509423671744,9.82562815714443,0.0282807972830207
S05,7,0,0.642857142857143,0,0.833333333333333,0.720162453266797,4.5,F,Inf,Inf,0,0,-0.00546448087431692,-0.169443732376314,-1,3.18443799442485,0.177773802403701,0.702477008048248,0,4.71463738424167,-0.134501055869854,0.624692567643331,-5.87634757749238,-0.0396950166809838
S05,5,4,0.722222222222222,0.0833333333333333,0.8,0.760544589200314,3.48484848484848,F,1.97244992495042,0.39676916462543,-0.111111111111111,-0.186868686868687,-0.229820978454858,-0.0669059215585748,0.810344827586207,3.26745256955034,0.459057170961007,1.24448483658564,0.717622051315181,2.43012172918287,-0.0233029466569389,0.836174178807806,-39.24077130412,-0.00687735014629391
S05,6,4,0.461538461538462,0.117647058823529,0.7,0.739634164733858,2.33846153846154,F,1.09027281746618,0.641695024022729,-0.192307692307692,-0.511646586345382,-0.483181542197936,-0.403703192475302,1.55578093306288,3.23070738498566,0.334551211893125,0.981574088612342,0.253696049706471,2.96141270530974,0.0951267515898594,1.05990562635078,10.822583174307,0.0280745602088138
S05,7,4,0.642857142857143,0.125,0.766666666666667,0.826914140759355,4.14285714285714,F,1.51645573717658,0.392121511787719,-0.08,-0.0793650793650793,-0.0843958712811171,-0.169443732376314,1.71551724137931,3.11598587059995,-0.0541667206341357,0.685399353277366,-0.231940523037837,-15.284079987769,0.0705212120381408,0.477382272876725,9.79745722567343,0.0208127785325779
S05,5,7,0.833333333333333,0.0555555555555556,0.9,0.564448949133657,4.11764705882353,F,2.56064038412475,0.312898625960675,0,-0.0392156862745099,-0.0899674988392441,0.0766470135862599,0.206896551724138,3.11858186566596,-0.0453705515780069,1.0588162440313,0.213194328776168,-22.6796442847121,0.0199612790452884,0.930031412463922,48.3126036351487,0.00589113073910147
S05,6,7,0.625,0,0.766666666666667,0.685986927786351,3.75,F,Inf,Inf,-0.115384615384615,-0.216867469879518,-0.171220400728597,-0.192514739810305,-1,3.08626270262694,-0.154879550869133,0.935055905213241,-0.235734713055786,-6.24345100647419,-0.354644704942604,0.635914903042265,-2.24856797806307,-0.104665553645474
S05,7,7,0.705882352941177,0.0769230769230769,0.8,0.798087717000453,4.76960784313725,F,1.96747195740194,0.44234089357188,-0.04,0.0599128540305009,0.0541209805112085,-0.088016647315168,0.671087533156499,3.0812331297272,-0.171921560727068,1.03867049086789,-0.349695363130769,-5.92800486726665,-0.241220959861298,0.798987312086126,-3.70556896255054,-0.0711910398291767
S06,5,0,0.428571428571429,0.125,0.633333333333333,1.27352521096654,1.73469387755102,M,0.970337010583303,0.665180875084357,0,0,-0.210861650485437,-0.0727272727272727,-0.170212765957447,2.79944964967918,-0.3158159342671,0.498648523204503,0,-2.23595588291893,0.681595594101102,0.923066081312268,1.40957965235648,0.127087948358725
S06,6,0,0.428571428571429,0.25,0.6,1.36966113847119,1.42857142857143,M,0.494477380403377,0.427251059994393,0,0,-0.350121359223301,-0.0727272727272727,0.659574468085106,2.7960908436033,-0.333829817190896,0.778508674205843,0,-2.64305745104759,0.670765507109886,0.699743794737474,1.2470928986732,0.125068607934327
S06,7,0,0.529411764705882,0.0769230769230769,0.7,1.2810033585077,3.43137254901961,M,1.49986814608112,0.676142799232287,0,0,0.560983009708738,0.145454545454546,-0.48936170212766,2.81795066283887,-0.216591663052541,1.01520708531374,0,-4.65195584748812,0.627041100955357,1.03502798976956,1.62248256461497,0.116915906949351
S06,5,4,0.5,0.111111111111111,0.733333333333333,1.30066220725899,2.1875,M,1.22064034884735,0.610320174423675,0.157894736842105,0.261029411764706,-0.00487333131067941,0.0818181818181819,-0.26241134751773,2.87497026317303,0.0892147400492567,0.588306284284684,0.405030674316357,8.59736033478821,0.552141367200477,0.778742584033471,1.59825722236317,0.102950362603256
S06,6,4,0.722222222222222,0.0833333333333333,0.8,1.23218879695562,4.18181818181818,M,1.97244992495042,0.39676916462543,0.333333333333333,1.92727272727273,0.902372021182701,0.562626262626263,-0.446808510638298,2.81602706330409,-0.226908274380779,0.666601991949078,0.106921542810117,-3.59818070619448,0.277241019100975,0.304291061179045,1.9896977589759,0.0516933979963469
S06,7,4,0.333333333333333,0.2,0.566666666666667,1.41336748681315,1.16666666666667,M,0.410893934277457,0.636174266434186,-0.19047619047619,-0.66,-0.469265776699029,-0.278787878787879,0.327659574468085,2.82513287771882,-0.178072148957899,0.953804862460383,0.038519514094641,-5.48445864784501,0.74295406336986,0.97144465937337,1.32662161845338,0.138528635536409
S06,5,7,0.666666666666667,0,0.833333333333333,1.19781858831244,3.33333333333333,M,Inf,Inf,0.315789473684211,0.92156862745098,0.516383495145631,0.442424242424242,-1,2.7797399348643,-0.421522690511959,0.667300390870154,-0.10570675624486,-1.93793734564725,0.516965726490192,0.926411597473531,1.86183092724345,0.0963916347464987
S06,6,7,0.571428571428571,0.125,0.733333333333333,1.33201731807457,3.06122448979592,M,1.33036175016871,0.485168505291652,0.222222222222222,1.14285714285714,0.392597087378641,0.236363636363636,-0.170212765957447,2.85119259481705,-0.0383091849077095,0.74341015607433,0.295520632283186,-22.5066746638622,0.447253019447883,1.00833196212415,2.24516614905479,0.0833932453947836
S06,7,7,0.625,0.0714285714285714,0.766666666666667,1.39377263405971,4.17307692307692,M,1.7838731566499,0.573297214360574,0.0952380952380954,0.216153846153846,0.898395491038088,0.352272727272727,-0.525835866261398,2.8070600895729,-0.274999772170531,0.514323399826411,-0.0584081091179904,-2.60786921547881,0.316976186792864,0.804318085296807,2.8293539480097,0.0591022794259757
S07,5,0,0.9375,0.285714285714286,0.833333333333333,1.11340016206397,4.5625,F,2.10006936628541,-0.484085861209842,0,0,-0.106311940219407,0.0568105569223886,0.289167412712623,3.67626596880819,-0.0479697355955259,1.2867125685242,0,-23.6468581882512,-0.15005553239164,0.52348282643171,-4.82168913783515,-0.0517324477710441
S07,6,0,0.857142857142857,0.3125,0.766666666666667,1.09178282639836,4.75324675324675,F,1.55634693499281,-0.289397056381736,0,0,-0.0689490699030155,-0.0337732050995304,0.410026857654432,3.50186542976661,-0.203577352754021,1.08600320973331,0,-5.11901134149654,-0.109926786787943,0.610124132922961,-7.10567873702873,-0.0366345863871704
S07,7,0,0.866666666666667,0.0666666666666667,0.9,1.08433628719829,6,F,2.61185756268081,0.19515716470362,0,0,0.175261010122423,-0.0230373518228585,-0.699194270367055,3.55793617506264,-0.0353298721339923,0.708539407226353,0,-23.8253856558004,-0.141066125720967,0.576856634377047,-5.38407631409269,-0.047012191659868
S07,5,4,0.928571428571429,0.1875,0.866666666666667,0.980329913998139,4.56043956043956,F,2.3523803517044,-0.289043616833323,0.04,-0.000451603191329071,-0.106715532599257,0.0467456944755088,-0.153983885407341,3.53047552286088,-0.470850614556806,0.911005738633267,-0.42288087896128,-2.02711046054953,-0.0128424210688664,0.798536042662325,-69.5825525761599,-0.00442749338601469
S07,6,4,1,0.230769230769231,0.9,1.02625560886527,6,F,Inf,-Inf,0.173913043478261,0.262295081967213,0.175261010122423,0.127264594050548,0.0412506025755803,3.49752785328151,-0.566418876118236,0.836802162218508,-0.362841523364214,-1.61500428479859,-0.0431843945997035,0.366758094813303,-14.0237131036577,-0.0148880511271158
S07,7,4,1,0.1875,0.9,0.983690226664476,7,F,Inf,-Inf,0,0.166666666666667,0.371137845142827,0.127264594050548,-0.153983885407341,3.6001385409507,-0.268785533203233,0.576392086965559,-0.233455661069241,-2.82457502611262,0.06662640649788,0.426514654517693,9.80213294761087,0.0229698101721971
S07,5,7,0.875,0.214285714285714,0.833333333333333,0.96704029666483,4.20454545454546,F,1.94198798811938,-0.179355386316317,0,-0.0784557907845578,-0.176426943664211,-0.0136434802057706,-0.0331244404655327,3.94836463407363,0.74128172724196,0.618393256374166,0.789251462837486,1.06083802338527,-0.343734758165723,0.56678174950314,-2.19020355157197,-0.118504397275334
S07,6,7,0.941176470588235,0.384615384615385,0.8,0.838792274124959,5.42647058823529,F,1.85810770348299,-0.635672619620303,0.0434782608695652,0.141634522661524,0.0629198841548386,0.0609549120475745,0.735417670959301,3.8426637647314,0.43468497980784,0.97446790208868,0.638262332561861,2.2709581737125,-0.188526325174764,0.591614326567321,-4.07987952522425,-0.0649954594484094
S07,7,7,0.916666666666667,0.222222222222222,0.833333333333333,0.938532287064978,6.25,F,2.14770380088703,-0.309142226657126,-0.0740740740740741,0.0416666666666667,0.224230218877524,0.0333258778796689,0.00268576544315129,3.77869503201925,0.249136786031619,0.87083141348549,0.284466658165611,3.74566718209045,-0.136723679854894,0.331247717780401,-4.20952127387727,-0.0471362202674258
S08,5,0,0.846153846153846,0.352941176470588,0.733333333333333,1.22125154551879,3.81118881118881,M,1.39746817661476,-0.321342144478824,0,0,-0.00249540634689723,0.110744456177402,0.0652503793626708,2.95649095282146,0.177436393781116,1.07975235434516,0,5.85624688935521,0.260481823603545,0.37249267671106,2.34304940299423,0.0714879351470805
S08,6,0,0.705882352941177,0.307692307692308,0.666666666666667,1.22016750964259,3.45098039215686,M,1.04379730850244,-0.0194964308778663,0,0,-0.0967729586954025,-0.0733896515311509,-0.0713201820940819,2.87013186850628,-0.137231692810933,0.731748249891816,0,-6.23342051001074,0.329857006122725,0.760224063437064,2.64329170594597,0.0905276073980568
S08,7,0,0.733333333333333,0.333333333333333,0.6,1.32351646615526,4.2,M,1.05365302250555,-0.096099211957315,0,0,0.0992683650422997,-0.0373548046462513,0.00606980273141121,2.84885731828693,-0.214750138770804,0.586751647673609,0,-3.56692276631372,0.189791824036281,0.567517306444744,3.96928291876896,0.0520874179259513
S08,5,4,0.882352941176471,0.307692307692308,0.733333333333333,1.1787443057868,4.15032679738562,M,1.68923365612917,-0.342214604691231,0,0.0889848294057681,0.0862673697507942,0.158262935586061,-0.0713201820940819,2.82496936230915,-0.301791096415627,0.787004688342799,-0.479227490196743,-2.93955937601249,0.252504311036938,0.615084923917478,3.10598063649006,0.0692985466780233
S08,6,4,0.833333333333333,0.277777777777778,0.733333333333333,1.41322165813799,4.61538461538462,M,1.55687736395148,-0.188982884125962,0.1,0.337412587412588,0.207987214332198,0.0939149947201691,-0.161608497723824,2.88560354053232,-0.0808572943163177,0.957536323832219,0.056374398494615,-12.1020355460592,-0.391060567829191,1.21976848872028,-2.82419499016508,-0.107324619141576
S08,7,4,0.625,0.5,0.5,1.31633966146259,1.75,M,0.318639363964375,-0.159319681982188,-0.166666666666667,-0.583333333333333,-0.541971514565708,-0.179563753959873,0.509104704097117,2.73757212507767,-0.620241918713551,0.575164459014958,-0.405491779942747,-1.22274221530921,0.363787191097158,0.637831765311728,2.19535960350537,0.0998395771525088
S08,5,7,1,0.0588235294117647,0.933333333333333,1.14958234538043,5,M,Inf,-Inf,0.272727272727273,0.311926605504587,0.308652815526547,0.312697993664203,-0.822458270106222,2.89922534855862,-0.0312232772172706,0.604636661045309,-0.208659670998387,-24.9039796716553,0.352072751014838,0.481489728121026,1.97088416186536,0.0966246075960765
S08,6,7,0.588235294117647,0.615384615384615,0.5,1.20913739275962,-0.423529411764706,M,-0.0703734011808266,-0.25819453153078,-0.25,-1.12272727272727,-1.11085059143284,-0.227824709609292,0.857359635811836,2.83889929076669,-0.251034375581252,0.929193499068643,-0.113802682770319,-3.83989974248938,0.145153259467395,0.690091587836651,5.72303727046759,0.0398365868897859
S08,7,7,0.866666666666667,0.4,0.733333333333333,1.2911297045345,5.44444444444444,M,1.36411871977259,-0.428712256750493,0.222222222222222,0.296296296296297,0.424977510240018,0.137671594508976,0.207283763277694,2.88313566175807,-0.0898495468163592,0.759247532068154,0.124900591954445,-9.69785761586464,0.0840979886675039,0.928371018976607,11.457112516981,0.0230802728447293
S09,5,0,0.933333333333333,0.2,0.866666666666667,0.831523117733278,4.58333333333333,F,2.34270717961694,-0.329732356235555,0,0,0.594795539033457,0.61206305688828,0.307392996108949,3.03018474235921,-0.128764921130124,0.825921085801273,0,-7.05783840702982,-0.200147709625097,0.527386235455175,-3.62838840729834,-0.0357117685272765
S09,6,0,0.375,0.0714285714285714,0.633333333333333,0.809258236533264,1.96153846153846,F,1.14659442872115,0.891936578324949,0,0,-0.317472118959108,-0.352296093214531,-0.53307392996109,3.10879339742446,0.31179971391452,1.28477377101681,0,3.63527791903977,-0.074012260328761,0.812852568521883,-12.181540780921,-0.0132057904334362
S09,7,0,0.428571428571429,0.1875,0.633333333333333,0.86865419946666,2.07692307692308,F,0.707134189226171,0.533579464405791,0,0,-0.27732342007435,-0.259766963673749,0.22568093385214,3.10655277857625,0.299242096380979,0.62843458116293,0,2.64915487624135,-0.0934332053271781,0.518626611892208,-7.70772392591638,-0.0166710126618768
S09,5,4,0.583333333333333,0.277777777777778,0.666666666666667,0.767406379999966,2.11538461538462,F,0.799884192097703,0.189513701800927,-0.230769230769231,-0.538461538461538,-0.263940520446097,0.00753941055517475,0.815823605706874,3.02381476747942,-0.164465642072756,0.79727898458891,-0.0357007209426319,-5.42912665693061,-0.0775731007713582,0.408647486933058,-8.24068407322653,-0.0138411407448975
S09,6,4,0.705882352941177,0.384615384615385,0.666666666666667,0.783363293600058,3.13235294117647,F,0.834776317250281,-0.124006926503947,0.0526315789473684,0.596885813148789,0.0899190903127051,0.219207353949119,1.51421730020952,3.0405897866036,-0.07044952931549,0.455212406176313,-0.38224924323001,-9.5769881258184,0.108842500479535,0.743225379694765,7.92066700435722,0.0194204479798242
S09,7,4,0.6875,0.0714285714285714,0.8,0.783758968466586,4.64423076923077,F,1.95401020380019,0.488228690785427,0.263157894736842,1.23611111111111,0.615985130111524,0.187457162440027,-0.53307392996109,2.83261209536728,-0.102105353682702,1.0108478463718,-0.401347450063681,-9.84678331446851,-0.045874233634651,0.494185220911775,-15.3241380077253,-0.00763952457044098
S09,5,7,0.823529411764706,0.230769230769231,0.8,0.839585882733308,3.85294117647059,F,1.6652154090234,-0.0962917871355706,-0.0769230769230769,-0.159358288770054,0.34065165099497,0.422408579607305,0.508530380125711,2.91613907839857,-0.204365245362605,0.637854048512666,-0.0756003242324813,-3.90799156050531,-0.0315239291088722,0.480251062672601,-21.9833475016644,-0.00543723143005004
S09,6,7,0.733333333333333,0.533333333333333,0.6,0.823045676066658,2.57142857142857,F,0.539273989302959,-0.353288728558608,-0.0526315789473684,0.310924369747899,-0.105257567711099,0.266620973269362,2.4863813229572,3.00431771036651,-0.273737500804616,0.819432496654459,-0.585537214719136,-3.30690937710709,0.0676286025584484,0.643328756199184,11.8600376773235,0.0120667731092921
S09,7,7,0.461538461538462,0.352941176470588,0.566666666666667,0.88676619560002,1.17482517482518,F,0.280833328538915,0.236975279559096,-0.105263157894737,-0.434343434343434,-0.591213247718824,-0.202825960879422,1.3071641107805,3.0022058639439,-0.285573409301904,0.862381367021467,-0.584815505682883,-3.25186056809496,-0.198252991802379,0.403559470056325,-3.20430628502715,-0.0353736995859123
S10,5,0,0.6,0.133333333333333,0.733333333333333,1.03117382560017,2.69230769230769,F,1.36411871977259,0.428712256750493,0,0,-0.0840656500387697,0.0519480519480518,-0.272727272727273,3.00189729105448,0.0680965508839578,0.915451537466466,0,14.0505253844568,0.458817591175809,0.43802724086241,1.44248232221098,0.0716382382689934
S10,6,0,0.333333333333333,0.166666666666667,0.633333333333333,1.06603424412718,1.2,F,0.536694266806244,0.699074432698579,0,0,-0.591754975445852,-0.415584415584416,-0.090909090909091,3.09258656621423,-0.0113014911431079,0.869427643964311,0,-82.5051338786274,0.376712757694719,0.285748287857115,1.41899704231421,0.0608468950603291
S10,7,0,0.777777777777778,0.25,0.766666666666667,1.07442283867449,4.92592592592593,F,1.43919942398247,-0.0451099617951527,0,0,0.675820625484622,0.363636363636364,0.363636363636364,2.99738697342422,0.0392095609110549,0.685996670009597,0,21.1236530104579,0.256749606797936,0.322240540876483,2.21095702803253,0.0400880216038038
S10,5,4,0.636363636363636,0.0526315789473684,0.833333333333333,0.938496768533468,3.08080808080808,F,1.96861195415531,0.635550281560613,0.136363636363636,0.144300144300144,0.0481038088300946,0.115702479338843,-0.712918660287081,3.13229801564185,0.234558377484589,0.54953521194228,0.166461826600631,3.16043464481657,0.478818055878225,0.420031415195137,1.35353773480432,0.0773390107022161
S10,6,4,0.588235294117647,0.0769230769230769,0.733333333333333,0.943146100400128,3.32352941176471,F,1.64908470321321,0.60153452066624,0.157894736842105,1.76960784313725,0.130678621926931,0.0313216195569136,-0.58041958041958,3.10866463670677,0.0882403879889473,0.460237739778664,0.0995418791320552,7.68818287435703,0.305452850518053,0.488499653967315,2.28816821145861,0.0493369474797879
S10,7,4,0.823529411764706,0.0769230769230769,0.866666666666667,0.97410436520782,5.66176470588235,F,2.35497636392012,0.248588690312788,0.130434782608696,0.149380804953561,0.926156059477294,0.443850267379679,-0.58041958041958,3.11949933705711,0.155319732690506,0.39963852631084,0.116110171779451,4.07011837098448,0.363506074280057,0.358783282912514,1.64779972966349,0.0587137427754306
S10,5,7,0.722222222222222,0.0833333333333333,0.8,1.30096765360021,3.48484848484848,F,1.97244992495042,0.39676916462543,0.0909090909090911,0.294372294372294,0.185560046053714,0.266233766233766,-0.545454545454546,2.79136035853481,-0.641829634739994,0.657065696050046,-0.709926185623951,-1.26294556313751,-0.143916280529742,0.303395709217789,-3.82732014192034,-0.0216957564191787
S10,6,7,0.666666666666667,0,0.833333333333333,1.16282189000018,4,F,Inf,Inf,0.315789473684211,2.33333333333333,0.360816748513828,0.168831168831169,-1,2.68212135996144,-0.707507898874387,0.691616395340654,-0.696206407731279,-1.17544238605595,0.0511534952758912,0.474382853229847,13.4644673456459,0.00743611190728296
S10,7,7,0.4,0,0.7,1.33345187653354,2.8,F,Inf,Inf,-0.0869565217391306,-0.431578947368421,-0.0474282760403203,-0.298701298701299,-1,2.97346379895505,-0.748809397075479,0.412998758376928,-0.788018957986534,-0.858228805640801,-0.0914433450482983,0.412435534075442,-7.02305279819864,-0.0147699898834548
S11,5,0,0.5625,0,0.766666666666667,1.17936945262177,2.8125,F,Inf,Inf,0,0,-0.144986845951476,-0.0112676056338028,-1,2.88789664355907,-0.272046530973515,0.716634039073666,0,-3.11175591682071,0.112925314324024,0.750535427466522,7.6717473226431,0.0177034900584922
S11,6,0,0.769230769230769,0.117647058823529,0.833333333333333,1.11977981293299,4.43076923076923,F,1.92314735013195,0.225257757689844,0,0,0.346974568839521,0.352112676056338,2,3.14112128743517,0.00744630200555399,0.714686474313493,0,113.531698510354,0.254828452470113,0.772042530593769,3.44804318062783,0.0428034449323311
S11,7,0,0.375,0,0.666666666666667,1.11341073679963,2.625,F,Inf,Inf,0,0,-0.201987722888044,-0.340845070422535,-1,3.13321994528894,-0.0395939956794901,0.54164509135619,0,-18.5878035767965,-0.198035294177207,1.55989985601548,-6.30675210975415,-0.0332639182430628
S11,5,4,0.882352941176471,0.0769230769230769,0.866666666666667,1.16381364358585,4.36274509803922,F,2.61290830502867,0.119622719758515,0.130434782608696,0.55119825708061,0.326294914341065,0.550952775476388,0.961538461538462,3.17054282054018,0.182606122956893,0.789776085382636,0.454652653930408,4.8667232872642,0.162610078736996,1.35509551693826,7.15875491260355,0.0273135573488498
S11,6,4,0.733333333333333,0.133333333333333,0.8,1.20866901666626,4.15384615384615,F,1.73369733984687,0.243922946713349,-0.04,-0.0625000000000002,0.26278865828705,0.289014084507042,2.4,3.02681198758451,-0.0517100570973934,1.32047237329288,-0.0591563591029474,-22.2223325502015,0.102602821551499,1.30489995660375,11.1334382423587,0.0166596876197457
S11,7,4,0.230769230769231,0.117647058823529,0.5,1.09704213599964,0.897435897435898,F,0.450515515379688,0.961573675065974,-0.25,-0.658119658119658,-0.727175289876254,-0.594366197183099,2,3.08967158368725,0.335426368803189,0.763834499863589,0.375020364482679,2.60556813496536,-0.258113704285423,0.904570322911295,-3.68476761851656,-0.0419100919326304
S11,5,7,0.722222222222222,0.166666666666667,0.766666666666667,1.22534524701183,3.33333333333333,F,1.55687736395148,0.188982884125962,0,0.185185185185185,0.0133489233167689,0.269483568075117,3.25,3.12395903161524,-0.0947284434711933,0.88302151674117,0.177318087502322,-9.919853122527,0.0472030934662682,1.32449176542043,24.3811490866932,0.00792868689596626
S11,6,7,0.4375,0.0714285714285714,0.666666666666667,1.129205666533,2.36538461538462,F,1.30792310807535,0.811272238647847,-0.2,-0.466145833333333,-0.280912014030985,-0.230985915492958,0.821428571428571,3.12364780459257,-0.0965813200487568,0.636248605364359,-0.104027622054311,-8.25886343303062,-0.169341862422523,0.817918416161562,-5.34060750324865,-0.0284442926709331
S11,7,7,0.363636363636364,0.105263157894737,0.7,1.09964196426644,2.02139037433155,F,0.903363824748175,0.800437607891132,0.05,-0.229946524064171,-0.385487872170473,-0.360819462227913,1.68421052631579,3.07837888133205,-0.366087890786347,0.756961244560445,-0.326493895106857,-2.37657464015663,0.064210987383527,1.05521855299607,15.9978588632757,0.0107854968151318
S12,5,0,0.842105263157895,0,0.9,1.06801414186704,4.21052631578947,F,Inf,Inf,0,0,-0.0828330981435852,0.0624505928853755,-1,2.57501743078941,-0.238003876509699,0.871668705547967,0,-3.92275962284624,0.743016439567497,0.53121531695666,0.98092741328864,0.165521092920286
S12,6,0,0.785714285714286,0.125,0.833333333333333,1.0710018429887,4.53061224489796,F,1.94198798811938,0.179355386316317,0,0,-0.013109695910623,-0.00869565217391299,0.588235294117647,2.89429848028772,-0.104003230178828,0.700110771454417,0,-8.04519456830703,0.216819352833754,0.837368114213302,4.22046366796427,0.0536673877755834
S12,7,0,0.75,0.111111111111111,0.8,1.07270819930969,5.03125,F,1.89513009904343,0.273075299325634,0,0,0.0959427940542082,-0.0537549407114624,0.411764705882353,2.88244531409025,-0.151890707667281,0.442727783853006,0,-4.38063615478324,0.574073398957846,0.771836917897383,1.53036614820933,0.142095340249174
S12,5,4,1,0,1,0.946144138132286,5,F,Inf,NaN,0.111111111111111,0.1875,0.0891356959544926,0.261660079051383,-1,2.78366772725356,-0.163158608945789,0.64960685640927,0.0748452675639108,-4.93986756723608,0.723897339198488,1.25238908711511,1.5459400806742,0.17320727792316
S12,6,4,0.823529411764706,0,0.9,1.14912325153265,4.94117647058824,F,Inf,Inf,0.08,0.0906200317965024,0.0763223348256163,0.0390141827481981,-1,2.81427672768774,-0.0352322640744102,1.02761587916844,0.0687709661044178,-28.7723179487349,0.759187667253582,0.724840979814107,1.12143014175502,0.18165121234376
S12,7,4,0.785714285714286,0.0625,0.866666666666667,1.3109561689798,5.4,F,2.32575915209592,0.371240968304586,0.0833333333333333,0.0732919254658386,0.176266551630852,-0.00869565217391299,-0.205882352941176,2.68680175740415,-0.166956671096365,0.716481262030253,-0.0150659634290847,-5.0698912246626,0.722085664789461,0.487439407825756,0.966877815094722,0.166816080520953
S12,5,7,1,0,1,0.932079462721094,5,F,Inf,NaN,0.111111111111111,0.1875,0.0891356959544926,0.261660079051383,-1,2.67338997795642,-0.624050150260885,0.792291437509721,-0.386046273751186,-1.42633976178553,0.794359735438812,0.732050621880226,1.07709332495429,0.190066850666228
S12,6,7,0.875,0.0714285714285714,0.9,0.968129422812232,5.19230769230769,F,2.61558317306153,0.157442206154757,0.08,0.146049896049896,0.131025530414281,0.103952569169961,-0.092436974789916,2.59389825215314,-0.569101890795501,0.72686331619304,-0.465098660616673,-1.49808462578962,0.439215120011248,1.46032921146611,2.75136433901431,0.101467385932913
S12,7,7,0.733333333333333,0.133333333333333,0.8,1.02461741713282,4.84615384615385,F,1.73369733984687,0.243922946713349,0,-0.0367892976588629,0.055623828386662,-0.0747826086956522,0.694117647058824,2.59470677007321,-0.565602113088292,0.372368575095745,-0.413711405421011,-1.07888582749383,0.816263836017716,0.729899151470914,1.0466485438381,0.188573102105794
S13,5,0,0.692307692307692,0.411764705882353,0.633333333333333,1.55416831620726,2.38461538461538,F,0.725410054313722,-0.139697196216494,0,0,0.0782608695652173,0.215303825956489,0.307053941908714,2.35128508682723,0.06329949141621,1.20230152953601,0,17.3223368302741,-0.354639089928794,0.990777925240653,-2.80673594860562,-0.0880436869545037
S13,6,0,0.416666666666667,0.333333333333333,0.5,1.67678924185216,0.75,F,0.220298905047533,0.320577846771691,0,0,-0.660869565217391,-0.268567141785446,0.0580912863070539,2.35046006696312,-0.278153309867832,0.658623479767461,0,-2.91765792402967,-0.493120102645769,0.698731413534344,-1.6951277241339,-0.126957567208936
S13,7,0,0.6,0.2,0.666666666666667,1.63904335160032,3.5,F,1.09496833670871,0.294137065218557,0,0,0.582608695652174,0.053263315828957,-0.365145228215768,2.35228912224113,0.0673437360152002,1.16061321512173,0,15.9972948567124,0.0495838347473602,1.00961574147165,20.2645957756534,0.0123098207402263
S13,5,4,0.416666666666667,0.222222222222222,0.566666666666667,1.64964970153885,1.25,F,0.554281279538463,0.487569034017156,-0.105263157894737,-0.475806451612903,-0.434782608695652,-0.268567141785446,-0.294605809128631,2.51871486639529,-0.276830859591629,0.507573344204522,-0.340130351007839,-2.5735635801942,-0.150442228796287,0.354940157611247,-3.96011511145438,-0.0414991180017145
S13,6,4,0.384615384615385,0.117647058823529,0.6,1.61373498714314,1.81538461538462,F,0.893450200634625,0.740106332438506,0.2,1.42051282051282,-0.179130434782608,-0.324831207801951,-0.62655601659751,2.59714356651319,0.00748815766661343,0.641317230603947,0.285641467534446,106.945243624588,-0.031144290799334,0.402327658663817,-20.3662700995994,-0.00859107585218901
S13,7,4,0.5,0.4,0.433333333333333,1.62783197136397,1.16666666666667,F,0.2533471031358,0.1266735515679,-0.35,-0.666666666666667,-0.472463768115942,-0.122280570142536,0.269709543568465,2.56710710143254,-0.101399765004609,0.410178453275026,-0.168743501019809,-6.31610691751552,-0.0197783561372336,0.359610445545872,-30.3197737597581,-0.00545581079053547
S13,5,7,0.642857142857143,0.25,0.666666666666667,1.58143098758654,2.61904761904762,F,1.04059610699665,0.154191696697756,0.0526315789473684,0.098310291858679,0.184265010351967,0.12849640981674,-0.20643153526971,2.64722030987399,0.189025916655791,0.914477369083939,0.125726425239581,5.05900522969161,-0.243352754175359,1.26019246062715,-4.61298638406559,-0.0671282574205966
S13,6,7,0.5,0.214285714285714,0.566666666666667,1.45259233920029,2.18181818181818,F,0.791638607743375,0.395819303871687,0.133333333333333,1.90909090909091,-0.0134387351778657,-0.122280570142536,-0.319798458802608,2.61708605188085,0.0797834759990352,0.59446907636157,0.357936785866867,9.6638833779505,0.0385507270815841,0.751799005932421,22.4914937766275,0.0106341230451781
S13,7,7,0.533333333333333,0.0666666666666667,0.566666666666667,1.69269475363671,3.5,F,1.58473767995115,0.708717106068448,-0.15,1.26882631385732e-16,0.582608695652174,-0.0637659414853715,-0.788381742738589,2.58974558661544,0.304404321875073,1.03621837710115,0.237060585859873,3.3440659276978,-0.582465778179672,0.853363777827146,-1.58597628174668,-0.155316024267743
S14,5,0,0.785714285714286,0,0.9,0.892526986333482,3.92857142857143,F,Inf,Inf,0,0,-0.14704192992533,-0.0119760479041916,-1,3.60470844821734,-0.343701528952357,0.655290550129424,0,-2.35524173502207,0.0501337492558257,1.21496982161327,21.9863208185078,0.0126243540036962
S14,6,0,1,0,0.966666666666667,1.00793101482769,6,F,Inf,NaN,0,0,0.302699597932223,0.25748502994012,-1,3.53592626998744,-0.616848850045989,0.70564771754229,0,-1.36180589905641,0.0346044190761327,0.966908952599659,28.4158877021924,0.00871385928628917
S14,7,0,0.6,0.1,0.8,1.09570520986681,3.88888888888889,F,1.5348986686804,0.5141022312044,0,0,-0.155657668006893,-0.245508982035928,2,3.75726998067125,-0.235211707573689,0.782454365026461,0,-3.76071631375907,0.119074821121799,0.885507552639966,7.90271276298674,0.0310185987053368
S14,5,4,1,0.285714285714286,0.866666666666667,1.01267659753348,5,F,Inf,-Inf,-0.037037037037037,0.272727272727273,0.0855829982768523,0.25748502994012,7.57142857142857,3.76900045828186,-0.190180513984813,0.602243300461675,0.153521014967544,-4.08056191577002,0.145383043531714,1.04978973774686,7.04753765704161,0.0378718039916941
S14,6,4,0.714285714285714,0.1875,0.766666666666667,1.05601637566678,3.89010989010989,F,1.45309538095174,0.160598868543007,-0.206896551724138,-0.351648351648352,-0.155392568373614,-0.101796407185629,4.625,3.67781933237582,-0.0533640801450674,0.506562035000995,0.563484769900922,-13.3372806890379,0.21890911375814,0.697757535586557,3.81582478854965,0.0551242663423399
S14,7,4,0.666666666666667,0.133333333333333,0.766666666666667,1.05958610960017,4.30769230769231,F,1.54149891593224,0.340022158670664,-0.0416666666666667,0.107692307692308,-0.0647284937922503,-0.161676646706587,3,3.71600740103967,0.0982881199117997,0.62323428622002,0.333499827485488,8.03201740405863,0.255745790999692,0.83657293943468,3.57637797193359,0.0644002383316725
S14,5,7,0.9,0,0.966666666666667,0.956945679933451,4.5,F,Inf,Inf,0.0740740740740741,0.145454545454546,-0.0229753015508329,0.131736526946108,-1,3.72502895071788,0.134114436991796,0.583736757064572,0.477815965944153,5.69682645763713,0.0423009074398814,0.650238884287803,19.0628040808054,0.0106519388261514
S14,6,7,0.705882352941177,0,0.833333333333333,1.07339125006677,4.23529411764706,F,Inf,Inf,-0.137931034482759,-0.294117647058824,-0.080447342636078,-0.112363508277562,-1,3.58760735448617,0.0972110828058649,0.708657202859965,0.714059932851854,8.65968953758603,-0.0199595974238679,0.636620184532693,-39.9749955945947,-0.00485278209543474
S14,7,7,0.833333333333333,0.166666666666667,0.833333333333333,1.05788174240011,5.6,F,1.9348431322034,-0,0.0416666666666667,0.44,0.215852958070075,0.0479041916167666,4,3.74014816306446,0.194155750829082,0.736808984128944,0.429367458402771,4.42106802873406,0.114646185318884,0.419846315106412,5.65178411056786,0.0288694552097716
S15,5,0,0.538461538461538,0.235294117647059,0.666666666666667,1.30581348266676,1.98224852071006,F,0.818080899271982,0.312481834346352,0,0,0.768369118949318,0.394894503777025,0.0437109723461195,3.27410849209123,-0.0706424667060221,0.894057382335578,0,-13.3849527111995,0.754801546853029,1.75561798320769,1.75542479698865,0.135955875490482
S15,6,0,0.266666666666667,0.133333333333333,0.533333333333333,1.32830039531037,0.923076923076923,F,0.487845893426698,0.866848669923437,0,0,-0.176520649086288,-0.309195102891378,-0.408563782337199,3.20608778515893,0.165498577590132,1.14121246224986,0,6.45489210444861,-0.0444325848284754,1.30942229071592,-25.7536201717844,-0.00773648203202323
S15,7,0,0.352941176470588,0.307692307692308,0.5,1.2137458354483,0.457516339869281,F,0.125010279544802,0.439897083600955,0,0,-0.591848469863029,-0.0856994008856473,0.364852809991079,3.27929884097709,-0.041826622200397,0.837303196317673,0,-21.8770410110203,0.384456832552301,1.58224248710726,3.27181649455966,0.0692488846583184
S15,5,4,0.357142857142857,0.125,0.633333333333333,1.06231648973338,1.3265306122449,F,0.784243023575439,0.758227868588289,-0.05,-0.330795004568992,0.183401448166814,-0.0748148699438098,-0.445528545941124,3.27161972500791,-0.0844596352356647,0.53669043573266,-0.0138171685296426,-8.6738663574229,0.208008789472035,1.5217018596008,5.93038787373898,0.0374668244922031
S15,6,4,0.461538461538462,0.176470588235294,0.666666666666667,1.22432060920008,2.07692307692308,F,0.832340876357632,0.512729053468455,0.25,1.25,0.852828539555852,0.195623860380307,-0.21721677074041,3.06623175382183,-0.00879629788580289,0.696869001612423,-0.174294875475935,-94.9020611775869,0.266834229701377,0.892822435642127,3.54112295888771,0.0448583728580338
S15,7,4,0.666666666666667,0.333333333333333,0.666666666666667,1.24579790613347,3.5,F,0.861454598590915,8.32667268468867e-17,0.333333333333333,6.65,2.12235920554782,0.727012242771555,0.478590544157003,3.10697661012449,-0.403722119095965,0.541026713333092,-0.361895496895568,-1.82190954182739,0.704886728325725,1.22368544542663,1.56933464907277,0.122732979171825
S15,5,7,0.666666666666667,0.133333333333333,0.766666666666667,0.977820066933391,3.07692307692308,F,1.54149891593224,0.340022158670664,0.15,0.552238805970149,1.74493116971237,0.727012242771555,-0.408563782337199,3.27355455592716,-0.0737178164986446,0.801578337377552,-0.00307534979262251,-12.1450839998259,0.66194879341182,0.768897022773596,1.32467608165141,0.119231111957029
S15,6,7,0.5,0.214285714285714,0.633333333333333,1.15256911813344,2.18181818181818,F,0.791638607743375,0.395819303871687,0.1875,1.36363636363636,0.946405738523319,0.295259182078666,-0.0494775073276412,3.11825685440858,-0.338936805956953,1.11201451467516,-0.504435383547085,-3.11126136118494,0.548761315880678,1.94058203053973,2.53853124942186,0.0955488427371326
S15,7,7,0.428571428571429,0.25,0.533333333333333,1.19626963671432,1.66666666666667,F,0.494477380403377,0.427251059994393,0.0666666666666667,2.64285714285714,0.486837716927535,0.110222156067428,0.108942908117752,3.22174908803625,-0.3613320675079,0.929592998535815,-0.319505445307503,-2.66833231610866,0.507728565612479,0.955009933752391,1.92474121609131,0.0914527559424996
S16,5,0,0.875,0.0909090909090909,0.9,0.928184280298149,4.3125,M,2.48552711649495,0.0924141778714642,0,0,-0.0499973003617514,0.130462317922736,0.625,3.08661839320775,0.0883348614007279,0.769312441736669,0,9.92931402908221,0.739554810184724,1.13479789322844,1.44041917560689,0.266549872810495
S16,6,0,0.647058823529412,0.0769230769230769,0.766666666666667,1.01833378853331,3.70588235294118,M,1.8034688161014,0.524342464222147,0,0,-0.18362939366125,-0.164027865737809,0.375,3.25461774784342,-0.34855182331764,1.08258537424223,0,-2.98513322886744,0.980885511050294,0.998030875488005,1.01848272946258,0.39281125559369
S16,7,0,0.8,0,0.866666666666667,1.02106173893333,5.6,M,Inf,Inf,0,0,0.233626694023001,0.0335655478150729,-1,3.0479479780654,-0.32098193910893,0.58834228133006,0,-2.38965075397975,0.979867287400588,1.51183375041621,1.25482961276987,0.366243258905664
S16,5,4,0.8,0.133333333333333,0.833333333333333,0.920366054666674,3.84615384615385,M,1.9523928502097,0.134575191531936,-0.0740740740740741,-0.108138238573021,-0.152728918940247,0.0335655478150729,1.38333333333333,3.24080800994069,-0.103981066296618,0.66679539767115,-0.192315927697346,-7.85311631746465,0.546902272929018,1.47541080574666,2.22099075931596,0.21171521775603
S16,6,4,0.705882352941177,0.0769230769230769,0.8,0.959751253855397,4.08823529411765,M,1.96747195740194,0.44234089357188,0.0434782608695652,0.103174603174603,-0.0994006803088386,-0.0880303989867004,0.375,2.89656189500721,-0.438985583246438,1.5522287706776,-0.0904337599287975,-2.83809943117488,0.635270671294709,0.903997708420259,1.49666588398975,0.228963850010721
S16,7,4,0.846153846153846,0.176470588235294,0.833333333333333,0.998126981733314,5.69230769230769,M,1.94897572443347,-0.0455883705694655,-0.0384615384615384,0.0164835164835164,0.253961199968435,0.0931943294197885,2.15441176470588,2.89183851281249,-0.143493200663271,0.586532441167163,0.177488738445659,-5.33721497901278,0.396521520469035,0.946960861715932,2.45413953675114,0.137620921056767
S16,5,7,0.875,0,0.933333333333333,0.945097259225344,4.375,M,Inf,Inf,0.037037037037037,0.0144927536231884,-0.0362291452945305,0.130462317922736,-1,2.84478590099156,-0.279063963000907,0.710255495635686,-0.367398824401635,-3.01997636450545,0.524715297563003,1.63188836271763,2.43456568783726,0.182113198945113
S16,6,7,0.615384615384615,0.235294117647059,0.7,0.991065883600007,2.98224852071006,M,1.01490351610354,0.214070525930575,-0.0869565217391306,-0.195266272189349,-0.343039038685976,-0.20494957860379,3.20588235294118,3.1993144603571,-0.486649173218669,0.849979590748817,-0.138097349901029,-1.89447229735265,0.875485590080363,1.50513263302138,1.40132343071331,0.350602175299149
S16,7,7,0.8125,0.0714285714285714,0.866666666666667,0.971176751172433,5.58653846153846,M,2.3523803517044,0.289043616833323,0,-0.00240384615384622,0.230661245239292,0.0497150094996833,0.276785714285714,3.15958595197925,-0.313793703205275,0.696901803918555,0.00718823590365486,-2.66036710887537,0.435847644085676,1.7873934829455,3.06743509604937,0.168724072733974
S17,5,0,0.642857142857143,0.25,0.7,1.39785003226653,2.61904761904762,F,1.04059610699665,0.154191696697756,0,0,-0.0802068434371217,0.0381112984822933,-0.0198019801980197,3.16685496015657,-0.0178544849395488,1.30661555834132,0,-64.0216092323536,0.487354129694282,0.337661049838723,1.19232824680446,0.137416771406234
S17,6,0,0.631578947368421,0.181818181818182,0.7,1.21583337906657,3.29824561403509,F,1.24449600890921,0.286209864082781,0,0,0.158323247882055,0.0198988195615512,-0.287128712871287,3.01402446528135,-0.178111168341947,0.860000248716301,0,-5.20664701872039,0.738698810736074,0.287348566869897,0.725666572391309,0.201104840224548
S17,7,0,0.583333333333333,0.333333333333333,0.633333333333333,1.39327697346657,2.625,F,0.641155693543382,0.110149452523766,0,0,-0.0781164044449332,-0.0580101180438449,0.306930693069307,3.06510944386681,0.00953430496153159,1.00711564786424,0,105.256913990442,0.306240267106226,0.713632760406752,2.75851337796113,0.0833714622138798
S17,5,4,0.882352941176471,0,0.933333333333333,1.2635028179999,4.41176470588235,F,Inf,Inf,0.333333333333333,0.684491978609626,0.549384194210196,0.424858644975697,-1,3.18889668002282,-0.316667664121883,0.734762798709732,-0.298813179182334,-2.70688534803904,0.363323223600879,0.291616425695318,1.48632174792161,0.105976971800469
S17,6,4,0.642857142857143,0,0.833333333333333,1.27527189999995,3.85714285714286,F,Inf,Inf,0.190476190476191,0.169452887537994,0.354604466938057,0.0381112984822933,-1,3.15598410833894,-0.429502570026682,0.501705529821791,-0.251391401684735,-1.64914437221627,0.653565350951786,0.345320738212088,0.899129631700132,0.190637075387365
S17,7,4,0.642857142857143,0.5,0.566666666666667,1.35684728066655,2,F,0.36610635680057,-0.183053178400285,-0.105263157894737,-0.238095238095238,-0.297612498624711,0.0381112984822933,0.960396039603961,3.09109057972021,-0.286555920081203,0.899476871433831,-0.296090225042734,-3.30967702479246,0.363749249745473,0.765693096785335,2.40561021691687,0.102564530504376
S17,5,7,0.722222222222222,0,0.833333333333333,1.26541779653322,3.61111111111111,F,Inf,Inf,0.190476190476191,0.378787878787879,0.268199655260938,0.166273187183811,-1,2.96127215989191,0.0309838341621738,0.936023667069543,0.0488383191017225,31.2254176182899,0.320886578483273,0.787159965536355,2.76490329778475,0.0842388460275945
S17,6,7,0.833333333333333,0.111111111111111,0.866666666666667,1.31886585853322,4.875,F,2.18806191494905,0.126609391372824,0.238095238095238,0.478058510638298,0.712069534602267,0.345699831365936,-0.564356435643564,3.01846337763646,-0.161806144186277,0.967908544014977,0.0163050241556697,-6.08026003133572,0.240660234534728,0.990980999154961,4.13645522947836,0.0655178231115366
S17,7,7,0.666666666666667,0.133333333333333,0.766666666666667,1.26735947919987,4.30769230769231,F,1.54149891593224,0.340022158670664,0.210526315789474,0.641025641025641,0.512834618346776,0.0765598650927485,-0.477227722772277,3.17448114943461,-0.36608875017713,0.60504242489279,-0.375623055138661,-2.12474360439852,0.501662088553494,0.501438623201767,1.411554364759,0.146328738595584
S18,5,0,0.8125,0.0714285714285714,0.866666666666667,1.04109295641927,3.99038461538462,F,2.3523803517044,0.289043616833323,0,0,-0.032889068833535,0.0610057708161583,-0.65173116089613,3.08495575559318,-0.254055631115725,0.687231513774441,0,-3.26304232995163,0.042295590456854,1.05554577236709,24.2908908846414,0.00975394188351765
S18,6,0,0.666666666666667,0.333333333333333,0.666666666666667,1.19533889799997,3,F,0.861454598590915,8.32667268468867e-17,0,0,-0.272919010785694,-0.129431162407255,0.625254582484725,2.98732127446012,-0.230741328034561,0.899518457871556,0,-4.11035802379299,-0.219484546661823,1.11756077989404,-4.81650070214127,-0.0489289349796039
S18,7,0,0.818181818181818,0.210526315789474,0.8,1.20956223682761,5.38787878787879,F,1.71305424889769,-0.0519307440885426,0,0,0.305808079619229,0.0684253915910965,0.0264765784114053,3.06487007287604,-0.341152296278986,0.615679482235148,0,-2.30000638448322,-0.13542980508016,0.759118626374641,-6.43340023347616,-0.0312319661170252
S18,5,4,0.923076923076923,0,0.966666666666667,1.00983798573331,4.61538461538462,F,Inf,Inf,0.115384615384615,0.156626506024096,0.118586137252779,0.205403005897647,-1,3.13754469509509,-0.0260165188988138,0.487685242191302,0.228039112216911,-26.8423553125514,0.0500488759173412,0.496028615723086,14.0721040595347,0.0115419555977386
S18,6,4,0.823529411764706,0.0769230769230769,0.866666666666667,1.15822737920001,4.85294117647059,F,2.35497636392012,0.248588690312788,0.3,0.61764705882353,0.176160423729025,0.0754085640851559,-0.624941250195833,3.18955328001952,0.199506027213685,0.690930215084069,0.430247355248247,4.16640105061729,-0.180975052772336,0.608886610746361,-4.31170957358514,-0.0417353234235768
S18,7,4,0.8,0.266666666666667,0.766666666666667,1.27824784053326,5.09090909090909,F,1.464546956783,-0.109347755181413,-0.0416666666666667,-0.0551181102362205,0.233834405939429,0.0446826051112944,0.30020366598778,3.14120507641469,-0.01014416789871,0.974833162003915,0.331008128380276,-97.3304471542212,-0.351322457474141,1.01587351065326,-2.8688900620077,-0.0810197657855882
S18,5,7,0.923076923076923,0.117647058823529,0.9,1.15225343940401,4.56410256410256,F,2.61290830502867,-0.119622719758515,0.0384615384615384,0.143775100401606,0.106157402394415,0.205403005897647,-0.426380735593626,3.06755606806299,-0.329505133136818,0.871060102768972,-0.075449502021093,-2.83244754990872,-0.00496839679804366,0.949428375244968,-196.116814467843,-0.00114578028345065
S18,6,7,0.705882352941177,0.0769230769230769,0.8,1.24396788480006,4.08823529411765,F,1.96747195740194,0.44234089357188,0.2,0.362745098039216,-0.00917394607070051,-0.078221230784152,-0.624941250195833,3.00798060951118,-0.138068050148877,0.560712998537767,0.0926732778856847,-5.42346847944551,-0.195663862890039,1.219061767481,-5.64289841679082,-0.0436186718874367
S18,7,7,0.666666666666667,0.0666666666666667,0.8,1.18507841653335,4.5,F,1.93181324533948,0.535179323374284,0,-0.164791901012374,0.0906214838214592,-0.129431162407255,-0.674949083503055,2.91341233217943,-0.09553313147645,0.855600779174874,0.245619164802536,-9.68236771132598,0.0991902199373083,1.01417608295862,10.1528467064648,0.0213496471274996
S19,5,0,0.75,0.142857142857143,0.766666666666667,1.50270253027396,3.54166666666667,M,1.74206027407422,0.19654038684103,0,0,0.105737158105404,0.278688524590164,0.5,2.91857923142918,-0.535336187948804,0.515883766285065,0,-1.34168118296339,0.653203226147197,1.0245332542709,1.5495825196753,0.127263164720978
S19,6,0,0.625,0.142857142857143,0.733333333333333,1.31361632866504,3.375,M,1.38620988784252,0.374465579956883,0,0,0.0537024683122081,0.0655737704918032,0.5,3.29454559079925,-0.2966052238867,0.37091113372488,0,-2.05331764508148,0.372696800619816,0.888829256488059,2.52960963074408,0.08068030902627
S19,7,0,0.384615384615385,0,0.733333333333333,1.35831555415851,2.69230769230769,M,Inf,Inf,0,0,-0.159439626417612,-0.344262295081967,-1,2.74347256675153,-0.307592580502742,0.73083114162704,0,-2.77928233384653,0.375038040026558,0.529921172850344,1.94102136453859,0.067655944715267
S19,5,4,0.705882352941177,0.461538461538462,0.633333333333333,1.08906175145431,2.26890756302521,M,0.637953700418727,-0.222418234919724,-0.173913043478261,-0.359367276322294,-0.291628592731289,0.203471552555448,3.84615384615385,2.94304720792205,-0.409749485641997,0.737642333987959,0.125586702306806,-2.09606380975417,0.764611879710505,1.14738450431735,1.40092036571858,0.148968841089721
S19,6,4,0.545454545454545,0.263157894736842,0.666666666666667,1.03508250454712,2.2987012987013,M,0.747825295101129,0.259727353229136,-0.0909090909090909,-0.318903318903319,-0.282326745969174,-0.0700447093889718,1.76315789473684,3.08545874105465,-0.244391561429024,1.10677306248074,0.0522136624576751,-4.30470192059568,0.406743240016355,0.704683451719248,2.06384317101681,0.0821805434372871
S19,7,4,0.588235294117647,0.307692307692308,0.633333333333333,1.11783007026526,2.83660130718954,M,0.725410054313722,0.139697196216494,-0.136363636363636,0.05359477124183,-0.114389985480516,0.00289296046287366,2.23076923076923,3.18038594532298,-0.317351831067822,0.93016851877804,-0.00975925056507992,-3.03906374767922,0.497927630924211,0.854538440384992,1.85651975605649,0.104196914399528
S19,5,7,0.5625,0,0.766666666666667,1.22683048039844,2.8125,M,Inf,Inf,0,-0.205882352941177,-0.121914609739827,-0.0409836065573771,-1,3.16412804296151,-0.395043755567634,0.542338276008061,0.14029243238117,-1.8641889390002,0.640693404819044,0.829048864992788,1.42114964549687,0.134072246069898
S19,6,7,0.714285714285714,0.1875,0.766666666666667,1.14813681559847,3.89010989010989,M,1.45309538095174,0.160598868543007,0.0454545454545456,0.152625152625153,0.214523968359859,0.217798594847775,0.96875,3.02873314047801,0.0300504179962218,0.308687352142784,0.326655641882921,18.4888074859789,0.471668407503442,0.459334224841354,1.43690354038845,0.0918948526813696
S19,7,7,0.6,0.266666666666667,0.666666666666667,1.17455730744688,3.18181818181818,M,0.876272826345888,0.184789310037144,-0.0909090909090909,0.181818181818181,-0.00661046758445048,0.0229508196721311,1.8,2.97915449158778,-0.224421749768244,0.43160249341574,0.0831708307344985,-2.92736602662776,0.332755418380732,0.5769384895572,2.28265154863315,0.0648305242932805
S20,5,0,0.833333333333333,0.166666666666667,0.8,1.24902200413776,4,F,1.9348431322034,-0,0,0,-0.0877454493335243,0.0920770877944325,0.587209302325581,3.63381947135332,-0.184357651445692,0.685170470905408,0,-4.48991533687393,0.204300633114895,0.360545168331307,2.93907133777463,0.0551616379472355
S20,6,0,0.75,0.0714285714285714,0.833333333333333,1.27126433799983,4.38461538461538,F,2.1397235428816,0.39537202124472,0,0,-2.86656155940948e-05,-0.0171306209850108,-0.319767441860465,3.68766994601173,0.0150868624531683,0.553035473266796,0,49.2921275540657,0.013568687618248,0.326150414692165,42.0892438343221,0.00366357667328409
S20,7,0,0.705882352941177,0.0769230769230769,0.766666666666667,1.25687654142843,4.76960784313725,F,1.96747195740194,0.44234089357188,0,0,0.0877741149491184,-0.0749464668094219,-0.267441860465116,3.71533496408727,0.117549024896103,0.771363061311528,0,7.47154450973547,-0.0711582965731816,0.431527729670582,-9.23163895407788,-0.0192129027339055
S20,5,4,0.923076923076923,0.176470588235294,0.866666666666667,1.17209165333321,4.53296703296703,F,2.35497636392012,-0.248588690312788,0.0833333333333333,0.133241758241758,0.0338049509613222,0.20968538955691,0.680574555403557,3.55157554746857,-0.488962198097845,0.791044752096347,-0.304604546652153,-1.81896876687218,0.265261472876347,0.557514493248016,2.81484123340865,0.0716212040318378
S20,6,4,0.933333333333333,0.133333333333333,0.9,1.22953463799981,5.53846153846154,F,2.61185756268081,-0.19515716470362,0.08,0.263157894736842,0.263121685538197,0.223126338329764,0.269767441860465,3.55077805646952,-0.491915843458506,1.18089161682693,-0.507002705911674,-2.20909406758218,0.163841724251673,0.526936963255883,4.43052123423649,0.0442376400700579
S20,7,4,0.588235294117647,0.0769230769230769,0.7,1.30639171172399,3.87745098039216,F,1.64908470321321,0.60153452066624,-0.0869565217391306,-0.18705035971223,-0.115694424537767,-0.229122055674518,-0.267441860465116,3.56392272116213,-0.443232312317678,0.910541559081108,-0.560781337213781,-2.15287330541065,0.317383725590694,0.709472427441647,2.65389115606226,0.0856943314097948
S20,5,7,0.714285714285714,0.25,0.733333333333333,1.24602492206877,3.0952380952381,F,1.24043857212894,0.0542704641316094,-0.0833333333333335,-0.226190476190476,-0.294088740555703,-0.0639339247476293,1.38081395348837,3.74288875534057,0.219599239633174,0.891953368699265,0.403956891078866,4.30071083436739,-0.0426505793949915,0.283228907123183,-12.4779675818627,-0.0115157539306464
S20,6,7,0.785714285714286,0.1875,0.733333333333333,1.17346323857129,4.41758241758242,F,1.67878516676225,0.0477539756377507,-0.12,0.00751879699248118,0.00748991584594277,0.0296726827776077,0.785610465116279,3.68157571441122,0.462700313985843,0.686024346041765,0.447613451532675,1.79006981781861,-0.0362206546155187,0.720859180688549,-23.4406106837769,-0.00945367089076293
S20,7,7,0.705882352941177,0.153846153846154,0.766666666666667,1.30721572785694,4.5668449197861,F,1.56147131791529,0.239340573828557,0,-0.0425114453891429,0.0415312650657357,-0.0749464668094219,0.465116279069767,3.4451160689846,0.534478010749366,0.794119828588829,0.416928985853263,1.66729780229775,-0.0478747158917056,0.338718964941044,-12.156639752148,-0.0116336544538456
S21,5,0,0.625,0.142857142857143,0.733333333333333,0.964399852266189,2.8125,F,1.38620988784252,0.374465579956883,0,0,-0.177820907509035,0.0129870129870131,0.342105263157895,3.22944125176174,0.207177133872191,0.693428753808234,0,4.01938032635725,-0.415261128407935,0.638568029760409,-1.92434220964354,-0.100005889642824
S21,6,0,0.538461538461538,0.176470588235294,0.7,0.942901757011351,2.63736263736264,F,1.02545810693691,0.416170438178816,0,0,-0.229018872975505,-0.127272727272727,0.657894736842105,3.48024410075879,0.285185885315653,0.67322985789157,0,2.87709138890712,-0.308821799493404,0.577491675433984,-2.46073538766717,-0.0796847969867647
S21,7,0,0.6875,0,0.833333333333333,0.86185038453289,4.8125,F,Inf,Inf,0,0,0.40683978048454,0.114285714285714,-1,3.24746603810649,0.282022656906543,0.725078732082166,0,3.01931610549274,-0.230808188502247,0.604894895752557,-3.36968067661866,-0.0555847312665897
S21,5,4,0.9375,0.0714285714285714,0.933333333333333,0.782783431266452,4.66346153846154,F,2.99935433703807,-0.0344433758335119,0.272727272727273,0.658119658119658,0.36327131575425,0.51948051948052,-0.328947368421053,3.42303303629242,0.0634619863092818,0.667894969656068,-0.14371514756291,12.8777629129542,-0.473276019273281,0.343453674752726,-1.23828206925347,-0.122118657349839
S21,6,4,0.882352941176471,0.153846153846154,0.866666666666667,0.879420659932993,5.16577540106952,F,2.20690766554202,-0.0833775999848082,0.238095238095238,0.958689839572193,0.510112900004796,0.430099312452254,0.445344129554656,3.40414928653131,-0.00972278422326348,0.911022218423057,-0.294908669538916,-98.1688801433087,-0.63655252097595,0.683285204765192,-1.29857418797352,-0.164248632993492
S21,7,4,0.833333333333333,0.111111111111111,0.866666666666667,0.864824327399644,5.6875,F,2.18806191494905,0.126609391372824,0.04,0.181818181818182,0.66262883148173,0.350649350649351,0.043859649122807,3.26463356028474,-0.114138245721865,0.662221285212935,-0.396160902628408,-7.12968552753231,-0.417646351296011,0.655265885484012,-1.93820668667143,-0.104172468645509
S21,5,7,0.772727272727273,0,0.833333333333333,0.751203410266336,3.86363636363636,F,Inf,Inf,0.136363636363636,0.373737373737374,0.129458147260316,0.252420306965762,-1,3.35957394480118,-0.182476405574893,0.883267806148811,-0.389653539447085,-5.15038249230763,-0.575470185194861,0.469002255058581,-1.19004843477622,-0.148487655192773
S21,6,7,0.7,0.05,0.866666666666667,0.769795004399462,4.10526315789474,F,2.16925413965951,0.560226557121716,0.238095238095238,0.556578947368421,0.200092991144707,0.134545454545455,-0.530263157894737,3.29026428378523,-0.0113800190018836,0.772969382750044,-0.296565904317536,-77.2570567223528,-0.337013632995088,0.493124372610709,-2.08367875894355,-0.0840604545145586
S21,7,7,0.769230769230769,0.0588235294117647,0.866666666666667,0.864108980466301,5.28365384615385,F,2.30104238873793,0.414205276992835,0.04,0.097902097902098,0.544572346406104,0.246753246753247,-0.447368421052632,3.38346207405064,-0.0898969507690424,1.71797980556454,-0.371919607675586,-14.5802196342922,-0.769179271025607,0.520177489645151,-0.937666079531318,-0.198470102041525
S22,5,0,0.882352941176471,0.153846153846154,0.833333333333333,1.56866076471424,4.3048128342246,M,2.20690766554202,-0.0833775999848082,0,0,0.20636902903528,0.27886323268206,0.0893371757925072,3.65250340274356,-0.500381320997941,0.452609820928581,0,-1.34450028093192,1.3938583973486,0.782831341966051,0.634768616425586,0.367167662579858
S22,6,0,0.75,0.0555555555555556,0.833333333333333,1.59566433868953,4.41176470588235,M,2.26770856821913,0.459364533913484,0,0,0.236340930377771,0.0870337477797513,-0.606628242074928,3.60083615308945,-0.696522858333442,0.444956838359969,0,-0.957686949428933,1.45863113052859,0.728997902079165,0.585352747392754,0.384229979014471
S22,7,0,0.4375,0.214285714285714,0.6,1.65833125833329,1.98863636363636,M,0.634327923133204,0.474474646176773,0,0,-0.44270995941305,-0.365896980461812,0.517291066282421,3.81975338429093,-0.365484232138525,0.334338802197898,0,-1.58206654150717,1.45211432138175,0.687331703960256,0.57092936336991,0.396174523375582
S22,5,4,0.875,0.0714285714285714,0.9,1.42751500173334,4.32692307692308,M,2.61558317306153,0.157442206154757,0.08,0.0051361681796464,0.212565143255121,0.268206039076377,-0.494236311239193,3.29721623122442,-0.886289188451256,0.733973538413928,-0.385907867453315,-0.966639971951459,1.55319006861031,0.638226994422828,0.514355016251288,0.379914343499563
S22,6,4,0.933333333333333,0.133333333333333,0.9,1.608330689017,5.53846153846154,M,2.61185756268081,-0.19515716470362,0.08,0.255384615384616,0.552083383366556,0.352753108348135,-0.0559077809798271,3.56077982550682,-0.848586490995682,0.29338954847164,-0.152063632662239,-0.638302000573047,1.51750479317987,0.638813764033488,0.526692411286216,0.3997383729405
S22,7,4,0.571428571428571,0,0.766666666666667,1.6338960851034,4,M,Inf,Inf,0.277777777777778,1.01142857142857,0.120949110209179,-0.171783811215428,-1,3.56564724310391,-0.830108581357763,0.363572446079056,-0.464624349219238,-0.726374480072727,0.83345964880559,1.37898494682667,1.40894871075502,0.219548435973617
S22,5,7,0.6875,0.142857142857143,0.766666666666667,1.56178207366656,3.17708333333333,M,1.55634693499281,0.289397056381736,-0.08,-0.261969461697722,-0.109662816109897,-0.00355239786856127,0.0115273775216137,3.66834690909894,-0.440235489467699,0.549274269233876,0.0601458315302426,-1.6834862643886,1.3011649099262,0.798161970310284,0.686614819919266,0.342750511470392
S22,6,7,0.6,0.133333333333333,0.733333333333333,1.65195651133607,3.23076923076923,M,1.36411871977259,0.428712256750493,-0.12,-0.267692307692308,-0.0946180263695092,-0.130373001776199,-0.0559077809798271,3.41984830475415,-0.384936917976446,0.681422519596685,0.311585940356996,-2.14446358650917,1.09992704698613,1.02486600846199,0.920385277799194,0.269045025717322
S22,7,7,0.571428571428571,0.1875,0.7,1.72093024389856,3.30769230769231,M,1.06715892881158,0.353567094613086,0.166666666666667,0.663296703296703,-0.0730613127116405,-0.171783811215428,0.327629682997118,3.57071546203205,-0.308819837638522,0.61986711994775,0.0566643945000024,-2.54943597530035,1.26578514550804,1.37078468241689,0.924963566652012,0.321522593594229
S23,5,0,0.928571428571429,0.3125,0.8,1.24182413199976,4.48051948051948,M,1.95401020380019,-0.488228690785427,0,0,0.104662797678607,0.261795632245889,0.795895096921322,2.83927529380523,-0.176369479530674,0.72063477954932,0,-4.81320296863197,-0.194435933455337,0.41708960949279,-3.32152982168087,-0.047758287028157
S23,6,0,0.8125,0.142857142857143,0.833333333333333,1.29777125266639,4.6875,M,1.95471708289702,0.0902119824296329,0,0,0.15569341604963,0.104071178215152,-0.179019384264538,3.08594315087771,-0.00969936362204551,0.871404752560983,0,-96.2424612968173,0.0371143293470661,0.759656115188454,23.4837204459722,0.00976735679707193
S23,7,0,0.466666666666667,0.0666666666666667,0.7,1.23602271799988,3,M,1.4174342121369,0.792368839975577,0,0,-0.260356213728237,-0.365866810461041,-0.616875712656785,3.05123519970065,-0.141583798450228,0.848554552648112,0,-6.50618374684773,0.0765232624460249,0.833403549151613,11.9298283681601,0.0201385831492979
S23,5,4,0.6875,0,0.833333333333333,1.20413701724114,3.4375,M,Inf,Inf,0.0416666666666667,-0.232789855072464,-0.152491494896938,-0.0657859261256403,-1,3.1730703810599,0.321369602451662,0.423822808515376,0.497739081982336,2.02575708725983,0.069958423563718,0.636820212421091,11.4069202455241,0.0184109182606464
S23,6,4,0.8,0.266666666666667,0.766666666666667,1.36007712482726,4.36363636363636,M,1.464546956783,-0.109347755181413,-0.08,-0.069090909090909,0.0758455073043828,0.0870854677810732,0.532497149372862,3.05246308704869,0.26304236306719,0.768824271673397,0.272741726689235,3.33340317961201,0.0226744053469258,0.371559786632592,26.8830442078465,0.00576830325946051
S23,7,4,0.714285714285714,0.0625,0.833333333333333,1.28456726933305,4.86666666666667,M,2.10006936628541,0.484085861209842,0.190476190476191,0.622222222222222,0.199866586618638,-0.0293879751954704,-0.640820980615736,3.17790555706767,0.339742466117011,1.09935726212179,0.481326264567239,3.0861681853316,0.0521565085499945,0.33666757777949,11.1247980506957,0.0137259984825136
S23,5,7,0.533333333333333,0.0666666666666667,0.733333333333333,1.43887850482728,2.5,M,1.58473767995115,0.708717106068448,-0.0833333333333335,-0.442028985507246,-0.383630178106864,-0.275276354812618,-0.616875712656785,2.93674779465166,-0.576616872941056,0.501980308085862,-0.400247393410382,-1.22872867574266,-0.18705787675799,0.537017582775479,-3.91758341300411,-0.0492279142891876
S23,6,7,0.789473684210526,0.272727272727273,0.733333333333333,1.45181121586177,4.26315789473684,M,1.40918172694354,-0.100005516888532,-0.12,-0.0905263157894736,0.0510727489125055,0.0727817116260591,0.567326630040427,3.05841499261189,-0.114301780982471,0.840720989262251,-0.104602417360426,-8.0218206456118,-0.108113055522092,0.658850562692626,-7.50784536155822,-0.0284520509001041
S23,7,7,0.818181818181818,0.157894736842105,0.833333333333333,1.39705530333299,5.48863636363637,M,1.91160583619992,0.0473450495625743,0.190476190476191,0.829545454545455,0.353211927156294,0.111791955685189,-0.0926003720818582,3.02593669606711,-0.237713899495021,0.676725529429746,-0.0961301010447931,-3.46060239435989,-0.100667901337756,0.442424315810752,-6.60736774871167,-0.0264927139376173
S24,5,0,0.941176470588235,0.230769230769231,0.833333333333333,1.13274030855303,4.61764705882353,M,2.30104238873793,-0.414205276992835,0,0,-0.0539319072009642,0.100286532951289,0.28135593220339,3.76906527873013,0.141442173267077,0.873513356472421,0,6.60778424778105,0.474922451215163,0.765169822550588,1.8418583027439,0.128618046195288
S24,6,0,0.875,0.142857142857143,0.866666666666667,1.1859826851205,5.125,M,2.21791990425415,-0.0413894282489332,0,0,0.0500150647785478,0.0229226361031518,-0.206779661016949,3.677070962166,-0.198247066407462,0.410078088956646,0,-3.23017843176832,0.523269699088014,0.627827334565645,1.51423933408875,0.141711401846121
S24,7,0,0.75,0.166666666666667,0.8,1.12682142126792,4.9,M,1.64191131629778,0.14646590795281,0,0,0.00391684242241647,-0.123209169054441,-0.0745762711864407,3.78830543511156,-0.253791072609484,0.321545405406961,0,-2.2343171184306,0.526526357407608,0.551287268519602,1.41016153759896,0.147510379606
S24,5,4,0.666666666666667,0,0.866666666666667,1.27769424680153,3.33333333333333,M,Inf,Inf,0.04,-0.278131634819533,-0.317063372501758,-0.220630372492837,-1,3.60301084244987,0.00343313042785034,0.453138767629733,-0.138009042839227,196.076391881875,0.45688195371411,0.608563127376014,1.7074532173588,0.119465703563321
S24,6,4,0.9375,0,0.966666666666667,1.01578809040099,5.625,M,Inf,Inf,0.115384615384615,0.0975609756097561,0.152455558903284,0.0959885386819483,-1,3.6773864965043,-0.197081955088911,0.424561811082903,0.00116511131855029,-3.30615797878341,0.398717539627505,0.388983478850957,1.56422865451579,0.107980304572817
S24,7,4,0.882352941176471,0.230769230769231,0.833333333333333,1.01070402940106,5.92941176470588,M,1.92314735013195,-0.225257757689844,0.0416666666666667,0.210084033613445,0.214823742090991,0.0315186246418337,0.28135593220339,3.78147180929483,0.187253317823863,0.561676482425999,0.441044390433348,4.00233649210506,0.278098895225822,0.579317514152433,2.73690085740186,0.0753144781037282
S24,5,7,0.833333333333333,0.0833333333333333,0.866666666666667,1.33805720880144,4.09090909090909,M,2.35041569320234,0.207786280499469,0.04,-0.114070642733063,-0.161850502615793,-0.0257879656160459,-0.53728813559322,3.3917144602422,-0.804644008335191,1.46925027454332,-0.946086181602268,-1.50641318613277,0.434348136823941,0.721078957116311,1.95503009913095,0.113573550750396
S24,6,7,0.857142857142857,0,0.933333333333333,1.24873355226803,5.14285714285714,M,Inf,Inf,0.0769230769230769,0.00348432055749119,0.0536736538544311,0.00204666393778128,-1,3.54044041589313,-0.702755693822421,0.956322589032619,-0.504508627414959,-1.39154685500265,0.479782463976833,0.430490654619209,1.36753198724504,0.129934230225525
S24,7,7,0.769230769230769,0.235294117647059,0.766666666666667,1.15663690653457,4.88757396449704,M,1.45783820135847,-0.00739681669689318,-0.0416666666666667,-0.00253592561284847,0.0013709839885475,-0.10072735287635,0.306480558325025,3.65081772782718,-0.295187198631109,1.04585656406797,-0.0413961260216252,-3.46448387029715,0.333784926371541,0.535714214179318,2.1928042521279,0.0903953160552857
S25,5,0,0.823529411764706,0.153846153846154,0.833333333333333,1.01201057533315,3.9572192513369,F,1.94897572443347,0.0455883705694655,0,0,-0.122480094867017,0.0632911392405064,0.655172413793104,3.03655040087189,0.246943584979776,0.697255364616926,0,3.3814127314778,-0.623709996708593,0.896099429939563,-1.51773306481733,-0.103619924313244
S25,6,0,0.714285714285714,0.0625,0.833333333333333,1.09464741093312,4.17142857142857,F,2.10006936628541,0.484085861209842,0,0,-0.0749788243266136,-0.0777576853526219,-0.327586206896552,2.99825036330582,0.0164076483575985,0.836629512246469,0,55.7468394640452,-0.482056168780502,1.060087613795,-2.1358622271019,-0.0800862964957505
S25,7,0,0.785714285714286,0.0625,0.866666666666667,1.05070988386632,5.4,F,2.32575915209592,0.371240968304586,0,0,0.197458919193631,0.0144665461121158,-0.327586206896552,2.90651645167256,0.0675155108795072,0.541662535836014,0,10.9008619834826,-0.456666999821949,0.689223746045495,-1.81794393979459,-0.0733393300316376
S25,5,4,0.714285714285714,0.1875,0.733333333333333,1.22204159613772,3.24175824175824,F,1.45309538095174,0.160598868543007,-0.12,-0.180798930798931,-0.281134755469839,-0.0777576853526219,1.01724137931034,2.91440900951528,0.116660638185749,0.640675095019308,-0.130282946794027,6.86111301657185,-0.379982886207214,1.12336372404854,-2.7893059969069,-0.0610240948191799
S25,6,4,0.764705882352941,0.153846153846154,0.766666666666667,1.17877160714254,4.33155080213904,F,1.74159851676854,0.149276974401929,-0.08,0.0383854662662076,-0.0394714551922751,-0.0126582278481012,0.655172413793104,2.90925212451663,0.0845499112436421,0.844734817290079,0.0681422628860437,10.8704379499212,-0.580006282922843,1.0566675808803,-1.77229696405155,-0.0931472434405962
S25,7,4,0.571428571428571,0.25,0.666666666666667,1.14802559804943,3,F,0.854502119988787,0.247238690201688,-0.230769230769231,-0.444444444444444,-0.334745044892428,-0.262206148282098,1.68965517241379,3.03200783145994,0.219600909603877,0.664398919728613,0.15208539872437,3.71176373406989,-0.729093366517695,0.952915775217156,-1.33888757528551,-0.12112776747933
S25,5,7,0.733333333333333,0.133333333333333,0.8,0.983368969466451,3.46153846153846,F,1.73369733984687,0.243922946713349,-0.04,-0.125259875259875,-0.232398128722032,-0.0531645569620253,0.43448275862069,2.9722681729309,-0.139984589724285,0.887398431280946,-0.386928174704061,-6.72944270012119,-0.351297424250905,0.620113995304192,-2.24161384856118,-0.0583627209831682
S25,6,7,0.588235294117647,0.230769230769231,0.633333333333333,0.993230050482534,2.78823529411765,F,0.959323748316496,0.256654043217881,-0.24,-0.331587429492345,-0.381704218194138,-0.240506329113924,1.48275862068966,2.9967686510992,0.00748891268355997,0.953607046011322,-0.00891873567403848,130.39650723851,-0.379657077350547,0.608389119957257,-2.05446723402513,-0.0630742457675108
S25,7,7,0.461538461538462,0.0588235294117647,0.7,1.00855966135971,2.99519230769231,F,1.46816785607216,0.830642543325719,-0.192307692307692,-0.445334757834758,-0.335811158602536,-0.404089581304771,-0.367139959432049,2.98226532755266,-0.0798096251355669,0.948491051211297,-0.147325136015074,-12.2028521097279,-0.185973903758637,0.940905968993729,-5.21580209476548,-0.0308967339523211
S26,5,0,0.933333333333333,0,0.966666666666667,0.843841605072089,4.66666666666667,F,Inf,Inf,0,0,-0.100145419292293,0.068247209114973,NaN,2.67804830383569,0.0348153465694188,0.464535091733976,0,19.5766574077574,0.580076388565957,0.891241830509358,1.62746850456184,0.18563749983697
S26,6,0,0.923076923076923,0,0.966666666666667,0.879798501576929,5.53846153846154,F,Inf,Inf,0,0,0.0679592825981581,0.0565082287950283,NaN,2.84725100523877,-0.326166761783232,0.356327603065795,0,-1.83014302624531,0.685272710567687,0.740635430526467,1.25585299205978,0.243669656088607
S26,7,0,0.764705882352941,0,0.866666666666667,0.935476565999962,5.35294117647059,F,Inf,Inf,0,0,0.0321861366941348,-0.124755437910001,NaN,2.67002749405653,-0.288221103878484,0.64630346301765,0,-2.78928225744052,0.619492947391966,0.65792667851828,1.30933983833265,0.205594340819803
S26,5,4,0.944444444444444,0.0833333333333333,0.933333333333333,0.797756077733196,4.6969696969697,F,2.97621294512369,-0.105112345461206,-0.0344827586206896,0.0064935064935063,-0.0943022077292557,0.0809644377949131,Inf,2.9471275480419,-0.0452837404523229,0.759906846024639,-0.0800990870217418,-19.2503170209541,0.483672828074915,0.6056938653423,1.60906985022097,0.171984656413335
S26,6,4,1,0.0769230769230769,0.966666666666667,0.793400402799982,6,F,Inf,-Inf,0,0.0833333333333334,0.156955889481338,0.144550581194614,Inf,2.53569850962178,-0.409996475466669,0.595055026507683,-0.0838297136834373,-1.88147495100194,0.497712788690887,0.756848464656554,1.74793656351608,0.159279294159647
S26,7,4,0.6,0.15,0.766666666666667,0.93626938906664,3.70588235294118,F,1.28978049262959,0.391543143178995,-0.115384615384615,-0.307692307692308,-0.285409597673291,-0.313269651283232,Inf,2.82974880729948,-0.100970686633353,0.787900658253811,0.187250417245131,-8.79104335829803,0.432298637385901,0.642963805749713,1.85485257096151,0.148593093016056
S26,5,7,0.928571428571429,0.0625,0.933333333333333,0.718114082933256,4.61904761904762,F,2.99935433703807,0.0344433758335119,-0.0344827586206896,-0.010204081632653,-0.109327608891351,0.0627969682521415,Inf,2.80406917355702,-0.44760712214172,0.740126611696117,-0.482422468711139,-1.92201167620804,0.304238523131976,0.797103524804874,2.93456112886226,0.108181305277809
S26,6,7,0.875,0.0714285714285714,0.9,0.772577084533308,5.19230769230769,F,2.61558317306153,0.157442206154757,-0.0689655172413793,-0.0624999999999999,0.00121182743577331,0.00148175854528714,Inf,2.65224312418013,-0.617384090400743,0.831899227575991,-0.291217328617511,-1.47733819683527,0.711917631071078,0.640592430916906,1.12424548675869,0.244705936186153
S26,7,7,0.933333333333333,0.0666666666666667,0.933333333333333,0.795190835466531,6.5,F,3.00217189208805,-0,0.0769230769230769,0.214285714285714,0.253368880271449,0.068247209114973,Inf,2.7922836780161,-0.480751497212252,0.722345908857344,-0.192530393333768,-1.76787666444379,0.653335441845613,1.32126756976801,1.75937805031208,0.232313384102422
S27,5,0,0.666666666666667,0.0555555555555556,0.833333333333333,1.01214482066646,3.23529411764706,F,2.02394611731851,0.581245759363797,0,0,-0.111926605504587,-0.000612369871402325,-0.606628242074928,2.82050211925385,-0.326806326382122,0.683908882935678,0,-2.53051355030586,0.718081476823049,0.929422293422017,1.34255726373386,0.169599034331511
S27,6,0,0.6875,0.214285714285714,0.733333333333333,0.905096513599867,3.61363636363636,F,1.28041501885804,0.151431098314353,0,0,-0.00807339449541282,0.0306184935701164,0.517291066282421,2.85549705265969,-0.178637950539445,0.458991710164323,0,-3.79252710503634,0.712898977778907,1.08688679359134,1.46239321671108,0.168375013295348
S27,7,0,0.647058823529412,0.153846153846154,0.733333333333333,1.02460726186648,4.08021390374332,F,1.39746817661476,0.321342144478824,0,0,0.12,-0.0300061236987139,0.0893371757925072,2.99917742036065,0.00642060464237983,1.04222787168442,0,159.003034634385,0.121434530197945,0.608690036086909,6.42474506340231,0.0296698332039873
S27,5,4,0.909090909090909,0.210526315789474,0.833333333333333,0.837428316399908,4.42424242424242,F,2.13977411647924,-0.265290677879318,0,0.367493112947658,0.214434250764526,0.362801313811724,0.490671924768694,2.98912999645555,-0.0347021139528792,0.654159591919588,0.292104212429242,-23.3069758059527,0.634663345119809,0.850831943437843,1.45337764840704,0.155065907198676
S27,6,4,0.80952380952381,0.222222222222222,0.8,0.885172166266632,4.53061224489796,F,1.64085252303323,-0.0557165877302269,0.0909090909090911,0.253754331921448,0.243632278599513,0.213542122299012,0.573487031700288,2.75258492804157,-0.198137699748709,0.537484032502163,-0.0194997492092641,-3.70011878626101,0.408973700480537,0.657109920774536,1.98209118879254,0.0932620732154397
S27,7,4,0.615384615384615,0.117647058823529,0.766666666666667,0.994716652533209,3.94871794871795,F,1.48021266487701,0.446725100317312,0.0454545454545456,-0.0322277111267936,0.0839049635379911,-0.0774883414197559,-0.16697745380573,3.03681044058898,0.160447359694803,0.820469029066513,0.154026755052423,5.64544942648017,0.641162340356084,0.782470495872387,1.37964064339823,0.156653792492417
S27,5,7,0.823529411764706,0.0769230769230769,0.866666666666667,0.783093468533306,4.04411764705882,F,2.35497636392012,0.248588690312788,0.04,0.25,0.110091743119266,0.234537660747091,-0.455331412103746,2.88806453408236,-0.448349095321036,0.744363898129566,-0.121542768938914,-1.92431583218633,0.47563537790802,0.841843052498522,1.92904081204771,0.116210951740358
S27,6,7,0.8125,0.0714285714285714,0.866666666666667,0.906369354402088,4.78846153846154,F,2.3523803517044,0.289043616833323,0.181818181818182,0.32510885341074,0.314410726887791,0.218003674219228,-0.494236311239193,2.91187091141131,-0.350912880335246,0.550065511635293,-0.172274929795801,-2.11352747901805,0.720920393139944,0.699591513309513,1.16020559465292,0.176140903110086
S27,7,7,0.666666666666667,0.166666666666667,0.766666666666667,0.978784700666429,4.2,F,1.39814886539716,0.268347133403122,0.0454545454545456,0.0293577981651377,0.152880733944954,-0.000612369871402325,0.180115273775216,2.93674149232189,-0.24912102704569,0.825730892620181,-0.25554163168807,-3.64761405762645,0.559490537259681,0.741620803256289,1.53921116949338,0.136699099445973
S28,5,0,0.875,0,0.933333333333333,0.922153744997831,4.375,F,Inf,Inf,0,0,-0.0911152874084635,0.0469208211143695,-1,3.02462904358378,-0.178999471585868,0.979651381071634,0,-5.529476651977,0.121180805189331,0.619490606846412,6.49506540848863,0.0263222486385411
S28,6,0,0.882352941176471,0.153846153846154,0.866666666666667,0.880984321664625,5.16577540106952,F,2.20690766554202,-0.0833775999848082,0,0,0.0731644093059426,0.0557184750733137,0.44,3.17739497283332,0.00187015991434665,0.884823558486869,0,502.978700706041,-0.137377771696772,0.732998380928824,-6.23210899111515,-0.0309456698727898
S28,7,0,0.75,0.166666666666667,0.766666666666667,0.9878109465492,4.9,F,1.64191131629778,0.14646590795281,0,0,0.017950878102521,-0.102639296187683,0.56,3.42653129483265,0.0937681168109512,1.40012887871266,0,12.619112517194,-0.128788185607295,1.12795889267178,-8.24651800325789,-0.0310829814082387
S28,5,4,0.928571428571429,0.1875,0.866666666666667,0.92164185166459,4.56043956043956,F,2.3523803517044,-0.289043616833323,-0.0714285714285714,0.0423861852433283,-0.0525911316157294,0.111018014243821,0.755,2.97460321035217,0.117398476491124,0.867185495678218,0.296397948076992,7.93219791492852,-0.255361418098272,1.34644502797216,-4.54400742159809,-0.0534138667342922
S28,6,4,0.866666666666667,0.0666666666666667,0.9,0.939310853331372,5.14285714285714,F,2.61185756268081,0.19515716470362,0.0384615384615384,-0.00443655723158826,0.0684032539851532,0.036950146627566,-0.376,3.45987810746745,0.231936185009312,0.965402217516343,0.230066025094965,4.23628955170356,-0.303679511154887,0.693576206713308,-2.74240505919176,-0.073292938748845
S28,7,4,0.625,0.0714285714285714,0.766666666666667,0.909192129997828,4.17307692307692,F,1.7838731566499,0.573297214360574,0,-0.148351648351648,-0.133063812604996,-0.252199413489736,-0.331428571428571,3.46625554147688,0.258360231792924,0.948505633799016,0.164592114981972,3.76959152084895,-0.34463890218894,0.430543287994206,-1.9038999100482,-0.0831784727673638
S28,5,7,0.882352941176471,0.153846153846154,0.866666666666667,0.89391764666434,4.3048128342246,F,2.20690766554202,-0.0833775999848082,-0.0714285714285714,-0.0160427807486631,-0.105696325578381,0.0557184750733137,0.44,3.35151086211787,-0.217069035066952,0.621760636955458,-0.0380695634810838,-3.6325678609904,-0.344122489357518,0.547303614830172,-2.14981506738076,-0.0830538367197143
S28,6,7,0.857142857142857,0,0.933333333333333,0.947573081664699,5.14285714285714,F,Inf,Inf,0.0769230769230769,-0.00443655723158843,0.0684032539851531,0.025555090071219,-1,3.13450142322719,-0.188548088883573,0.465369837884005,-0.19041824879792,-3.61807013416671,-0.123819536176281,0.869070417402368,-7.52901757137943,-0.0278915463760083
S28,7,7,0.642857142857143,0.0625,0.8,0.92816597499764,4.33333333333333,F,1.90022690115312,0.584007093775988,0.0434782608695652,-0.115646258503401,-0.0997713322902875,-0.230833682446586,-0.415,3.11832463758201,-0.260362038114179,0.547629390600707,-0.35413015492513,-2.84227248952096,-0.189616782446885,0.521193167142164,-3.80734808545026,-0.0427130115699773
S29,5,0,0.928571428571429,0.0625,0.933333333333333,0.87880774233317,4.61904761904762,F,2.99935433703807,0.0344433758335119,0,0,0.0772636989470837,0.257050765511684,0.4,4.17307839298308,-0.34089310788854,0.488728969882712,0,-2.0507646404605,0.16107907434108,0.371131435972396,3.78202805206588,0.0494814275990429
S29,6,0,0.6,0,0.8,0.924702602866317,3.6,F,Inf,Inf,0,0,-0.160400663501036,-0.187751813053989,-1,4.05271660219276,-0.277781564069449,0.677450176611657,0,-2.96302462802198,0.044905251213163,0.362437186702678,13.4066183087976,0.0133345071726417
S29,7,0,0.6875,0.0714285714285714,0.8,1.04006132526648,4.64423076923077,F,1.95401020380019,0.488228690785427,0,0,0.0831369645539521,-0.0692989524576953,0.6,4.08208396467097,-0.17888411158183,0.678898450933442,0,-4.60607113118008,0.122173639096752,0.240597256162813,4.01483614167931,0.0362791705386521
S29,5,4,0.875,0.214285714285714,0.833333333333333,0.941792192266343,4.20454545454546,F,1.94198798811938,-0.179355386316317,-0.107142857142857,-0.0897375820056232,-0.0194073405788612,0.184528605962933,3.8,4.16895065403378,0.11364792259006,0.369110780748297,0.454541030478599,5.34585116709996,0.360268373830461,0.216629262271396,1.29191047961575,0.106980833758481
S29,6,4,0.75,0.142857142857143,0.8,0.955137054933137,4.25,F,1.74206027407422,0.19654038684103,0,0.180555555555556,-0.00880633885538959,0.0153102336825142,2.2,4.3371727686477,0.193290552914861,0.270879677362915,0.471072116984311,2.69263559970541,0.312549550496936,0.239409986296007,1.565497045219,0.0960112169584486
S29,7,4,0.769230769230769,0.0588235294117647,0.866666666666667,0.90671332859989,5.28365384615385,F,2.30104238873793,0.414205276992835,0.0833333333333333,0.13768115942029,0.232264517644714,0.0413438294179633,0.317647058823529,4.3687996612409,0.296246971724728,0.316051706258612,0.475131083306558,1.89768947983213,0.317988742744626,0.54657401923868,2.32494533725311,0.0976820671200998
S29,5,7,0.75,0.0714285714285714,0.833333333333333,0.977156685333233,3.65384615384615,F,2.1397235428816,0.39537202124472,-0.107142857142857,-0.208961141950833,-0.147842553767077,0.0153102336825142,0.6,4.01035943628504,-0.420423444353265,1.68856561704638,-0.079530336464725,-3.09080812355122,-0.117942053257566,0.298137586077394,-4.62955961873841,-0.0350226112232076
S29,6,7,0.529411764705882,0.0769230769230769,0.7,1.03821682338876,2.94117647058824,F,1.49986814608112,0.676142799232287,-0.125,-0.183006535947712,-0.314052829657709,-0.283310423282931,0.723076923076923,4.27421770087525,-0.0116498567281101,0.818411377623776,0.266131707341339,-77.6542527262976,-0.141549579210254,0.339566022261631,-4.11674086967429,-0.0434822169423214
S29,7,7,0.583333333333333,0.0555555555555556,0.8,1.05140573153321,3.91176470588235,F,1.80364721227098,0.691395211887563,0,-0.15771526001705,-0.087690263444753,-0.210314262691378,0.244444444444444,4.06944153500583,-0.221458724404616,1.53145025005903,-0.0425746128227859,-5.58802901534341,-0.0902138054738253,0.353474203391327,-6.59031023484164,-0.026788774222677
S30,5,0,0.705882352941177,0,0.833333333333333,1.03600328513421,3.52941176470588,F,Inf,Inf,0,0,-0.166191562143672,-0.0112676056338028,-1,2.66851845882513,0.0844589892543685,0.405207797702385,0,7.53690458582701,0.14577341257777,0.667523156266493,5.60473195181992,0.0181060442562489
S30,6,0,0.666666666666667,0,0.833333333333333,0.971777606934012,4,F,Inf,Inf,0,0,-0.0550171037628278,-0.0661971830985916,-1,2.65579209942014,-0.018002090255916,0.729105638642897,0,-47.43209352869,0.268118876274577,0.863223688504667,3.46524770303022,0.033302178730112
S30,7,0,0.769230769230769,0.117647058823529,0.833333333333333,0.944139789400712,5.16923076923077,F,1.92314735013195,0.225257757689844,0,0,0.221208665906499,0.0774647887323944,2,2.61352919664796,-0.3582645725161,0.545735606608543,0,-2.06199344658381,0.368467867923276,0.670021922480571,2.22149267174227,0.0457662025306931
S30,5,4,0.636363636363636,0,0.866666666666667,1.03751211806734,3.18181818181818,F,Inf,Inf,0.04,-0.0984848484848486,-0.24830905981134,-0.108642765685019,-1,2.60415330642936,-0.43375071922911,0.537936733658492,-0.518209708483478,-1.69092907935455,-0.000204238621834896,0.878950664047061,-4590.33496588322,-2.53678188663388e-05
S30,6,4,0.666666666666667,0.133333333333333,0.766666666666667,0.979038753067306,3.69230769230769,F,1.54149891593224,0.340022158670664,-0.08,-0.0769230769230771,-0.127708095781072,-0.0661971830985916,2.4,2.63263273478592,-0.204460245780343,0.911013705523586,-0.186458155524427,-4.66824431298043,0.0223145361830823,0.789738401781553,39.8248147198988,0.00277161639110981
S30,7,4,0.631578947368421,0.181818181818182,0.7,1.12424867613424,3.84795321637427,F,1.24449600890921,0.286209864082781,-0.16,-0.255604288499025,-0.0909375062513754,-0.115344699777613,3.63636363636364,2.6006498587084,-0.46195729615141,0.989768712318138,-0.10369272363531,-2.15359993699113,0.518523232253953,1.00597950347578,1.93431120025752,0.0644040941696045
S30,5,7,0.583333333333333,0,0.833333333333333,1.00703518466737,2.91666666666667,F,Inf,Inf,0,-0.173611111111111,-0.310949971493729,-0.182922535211268,-1,2.66172508019935,0.029764878757471,0.800602996941751,-0.0546941104968975,30.0610736678381,0.434711631437837,0.978461791660617,2.27546769971473,0.053994126215029
S30,6,7,0.533333333333333,0.2,0.666666666666667,1.06372177266748,2.5,F,0.925272967480043,0.378984749832893,-0.2,-0.375,-0.409385689851767,-0.252957746478873,4.1,2.64375408462689,-0.114921244558172,0.736329636809089,-0.0969191543022564,-7.46682236880706,0.0251579570996737,0.898493441479833,37.6775004292763,0.00312478850970508
S30,7,7,0.222222222222222,0,0.5,1.09798635606982,1.55555555555556,F,Inf,Inf,-0.4,-0.699074074074074,-0.632506651463322,-0.688732394366197,-1,2.55260427447233,-0.140112892206216,1.14385610918826,0.218151680309884,-7.63321684730951,0.484118014850567,1.74884052584466,2.7316424968995,0.0581263755776237
S31,5,0,1,0.117647058823529,0.933333333333333,1.03055583798726,5,F,Inf,-Inf,0,0,0.108312342569269,0.230769230769231,0.0632911392405064,2.84040928433272,-0.244508510785271,0.417296458017361,0,-2.641972961901,-0.139791416189803,1.38159470332319,-8.40833149358424,-0.0205311569207766
S31,6,0,0.8125,0,0.9,1.17259682197099,4.875,F,Inf,Inf,0,0,0.0806045340050377,0,-1,2.74416983997036,-0.255490323370653,0.820101455746655,0,-3.54453554130088,0.00725484909280751,0.666925477484084,112.566787222222,0.00103000194322942
S31,7,0,0.625,0.214285714285714,0.7,1.32037288289745,3.65909090909091,F,1.11027797170775,0.2364996218895,0,0,-0.188916876574307,-0.230769230769231,0.936708860759494,2.67953024891494,-0.0367329622739371,0.50830426300241,0,-19.4091234903341,-0.071151238798888,0.870214449807447,-13.1108448867035,-0.00975331296768545
