ID,block,frequency,trial,cue,target,targOrient,response,RT
1,1,0,1,centre,incongRight,180,1,0.57816
1,1,0,2,blank,congRight,0,1,0.53022
1,1,0,3,blank,congLeft,0,1,0.461965
1,1,0,4,centre,congLeft,180,1,0.40029
1,1,0,5,upper,congLeft,0,1,0.27731
1,1,0,6,centre,incongRight,180,0,0.36166
1,1,0,7,upper,incongRight,0,1,0.513695
1,1,0,8,blank,congLeft,0,1,0.48047
1,1,0,9,blank,incongLeft,0,1,0.65239
1,1,0,10,centre,incongLeft,180,1,0.54619
1,1,0,11,centre,congLeft,180,1,0.52966
1,1,0,12,centre,congLeft,0,1,0.413605
1,1,0,13,upper,incongLeft,0,1,0.515525
1,1,0,14,centre,incongRight,0,0,0.42868
1,1,0,15,blank,congLeft,180,1,0.433855
1,1,0,16,centre,congRight,0,1,0.46899
1,1,0,17,lower,incongRight,180,1,0.411015
1,1,0,18,centre,congRight,180,1,0.612375
1,1,0,19,lower,incongRight,180,1,0.517245
1,1,0,20,blank,incongLeft,0,1,0.49581
1,1,0,21,lower,incongLeft,180,1,0.449855
1,1,0,22,lower,congRight,180,1,0.361475
1,1,0,23,centre,incongRight,0,1,0.56679
1,1,0,24,upper,incongRight,0,1,0.45378
1,1,0,25,centre,incongLeft,0,1,0.58424
1,1,0,26,blank,incongLeft,180,1,0.679265
1,1,0,27,lower,incongLeft,180,1,0.41264
1,1,0,28,blank,incongRight,180,1,0.579465
1,1,0,29,upper,congRight,0,1,0.34911
1,1,0,30,centre,incongLeft,180,1,0.49689
1,1,0,31,blank,congRight,180,1,0.49527
1,1,0,32,blank,congRight,0,1,0.454805
1,1,0,33,centre,incongLeft,0,1,0.527245
1,1,0,34,lower,congRight,180,1,0.44559
1,1,0,35,centre,congRight,180,1,0.447235
1,1,0,36,blank,incongRight,0,1,0.529885
1,1,0,37,blank,incongLeft,180,1,0.512865
1,1,0,38,lower,congLeft,180,1,0.36924
1,1,0,39,upper,incongLeft,0,1,0.366845
1,1,0,40,lower,congLeft,180,1,0.297175
1,1,0,41,upper,congLeft,0,1,0.302765
1,1,0,42,blank,congRight,180,1,0.447245
1,1,0,43,blank,incongRight,180,1,0.599425
1,1,0,44,blank,congLeft,180,1,0.50096
1,1,0,45,blank,incongRight,0,0,0.379445
1,1,0,46,centre,congRight,0,1,0.40244
1,1,0,47,centre,congLeft,0,1,0.396295
1,1,0,48,upper,congRight,0,1,0.379695
1,2,0,1,lower,congRight,180,1,0.37402
1,2,0,2,upper,congRight,0,1,0.36352
1,2,0,3,blank,incongRight,180,1,0.546355
1,2,0,4,upper,congRight,0,1,0.288645
1,2,0,5,lower,incongLeft,180,0,0.295565
1,2,0,6,blank,incongLeft,180,1,0.564405
1,2,0,7,centre,congLeft,180,1,0.463205
1,2,0,8,blank,incongRight,180,1,0.61493
1,2,0,9,centre,incongRight,0,1,0.54501
1,2,0,10,centre,congRight,180,1,0.362475
1,2,0,11,upper,incongLeft,0,1,0.48167
1,2,0,12,blank,incongLeft,180,1,0.589785
1,2,0,13,centre,congLeft,0,1,0.338505
1,2,0,14,lower,incongRight,180,0,0.282465
1,2,0,15,upper,incongLeft,0,1,0.413455
1,2,0,16,blank,congLeft,0,1,0.479025
1,2,0,17,blank,congLeft,180,1,0.55262
1,2,0,18,centre,congLeft,0,1,0.338655
1,2,0,19,upper,incongRight,0,1,0.45521
1,2,0,20,blank,congRight,0,1,0.47839
1,2,0,21,centre,incongRight,180,1,0.594965
1,2,0,22,centre,congRight,180,1,0.50146
1,2,0,23,lower,congLeft,180,1,0.418065
1,2,0,24,upper,congLeft,0,1,0.31741
1,2,0,25,centre,incongRight,180,1,0.58413
1,2,0,26,centre,congLeft,180,1,0.501635
1,2,0,27,blank,congRight,180,1,0.583595
1,2,0,28,centre,congRight,0,1,0.484715
1,2,0,29,blank,congRight,0,1,0.60192
1,2,0,30,centre,incongLeft,180,0,0.417905
1,2,0,31,centre,incongLeft,0,1,0.568035
1,2,0,32,lower,congLeft,180,1,0.385575
1,2,0,33,blank,congRight,180,1,0.58436
1,2,0,34,upper,congLeft,0,1,0.417395
1,2,0,35,blank,congLeft,180,1,0.51845
1,2,0,36,lower,congRight,180,1,0.38434
1,2,0,37,centre,congRight,0,1,0.518055
1,2,0,38,blank,congLeft,0,1,0.55283
1,2,0,39,blank,incongRight,0,1,0.582875
1,2,0,40,centre,incongRight,0,1,0.639775
1,2,0,41,lower,incongLeft,180,1,0.47488
1,2,0,42,upper,incongRight,0,1,0.446545
1,2,0,43,centre,incongLeft,180,1,0.63797
1,2,0,44,lower,incongRight,180,1,0.619225
1,2,0,45,blank,incongLeft,0,1,0.679115
1,2,0,46,blank,incongLeft,0,1,0.583375
1,2,0,47,centre,incongLeft,0,1,0.527245
1,2,0,48,blank,incongRight,0,1,0.90122
1,3,4,1,centre,incongLeft,180,1,0.585615
1,3,4,2,upper,congLeft,0,1,0.301615
1,3,4,3,blank,congRight,180,1,0.500035
1,3,4,4,centre,incongLeft,180,1,0.513835
1,3,4,5,lower,congRight,180,1,0.45878
1,3,4,6,blank,congRight,180,1,0.507775
1,3,4,7,blank,incongRight,0,1,0.55088
1,3,4,8,lower,incongLeft,180,1,0.483625
1,3,4,9,blank,congRight,0,1,0.48565
1,3,4,10,lower,incongRight,180,1,0.430005
1,3,4,11,upper,incongLeft,0,1,0.521595
1,3,4,12,centre,congRight,0,1,0.472425
1,3,4,13,centre,incongLeft,0,1,0.595745
1,3,4,14,centre,incongRight,0,1,0.61311
1,3,4,15,blank,congLeft,0,1,0.53599
1,3,4,16,blank,incongLeft,180,1,0.6994
1,3,4,17,blank,incongLeft,180,1,0.63721
1,3,4,18,centre,incongRight,180,1,0.596065
1,3,4,19,centre,congLeft,180,1,0.496085
1,3,4,20,lower,congRight,180,1,0.41118
1,3,4,21,centre,incongLeft,0,1,0.55236
1,3,4,22,centre,congLeft,0,1,0.361465
1,3,4,23,blank,congLeft,0,1,0.455625
1,3,4,24,blank,incongRight,180,1,0.66185
1,3,4,25,blank,congLeft,180,1,0.38
1,3,4,26,lower,incongLeft,180,0,0.31302
1,3,4,27,lower,congLeft,180,1,0.335515
1,3,4,28,upper,incongRight,0,1,0.435815
1,3,4,29,upper,incongLeft,0,1,0.402915
1,3,4,30,blank,incongRight,180,1,0.64597
1,3,4,31,blank,incongRight,0,0,0.443685
1,3,4,32,blank,congRight,0,1,0.43784
1,3,4,33,centre,congRight,180,1,0.51882
1,3,4,34,upper,congRight,0,1,0.36343
1,3,4,35,upper,congRight,0,1,0.330115
1,3,4,36,lower,incongRight,180,1,0.46577
1,3,4,37,centre,congRight,180,1,0.39517
1,3,4,38,blank,incongLeft,0,1,0.62914
1,3,4,39,upper,congLeft,0,1,0.34646
1,3,4,40,centre,congLeft,180,1,0.432875
1,3,4,41,blank,congLeft,180,1,0.42968
1,3,4,42,blank,incongLeft,0,1,0.613085
1,3,4,43,centre,incongRight,180,1,0.536505
1,3,4,44,centre,congLeft,0,1,0.3628
1,3,4,45,centre,congRight,0,1,0.38085
1,3,4,46,lower,congLeft,180,1,0.385035
1,3,4,47,upper,incongRight,0,1,0.435665
1,3,4,48,centre,incongRight,0,1,0.628045
1,4,0,1,upper,incongLeft,0,1,0.447865
1,4,0,2,centre,congRight,180,1,0.470965
1,4,0,3,lower,incongLeft,180,1,0.46322
1,4,0,4,blank,incongLeft,180,1,0.570795
1,4,0,5,blank,incongRight,180,1,0.61532
1,4,0,6,blank,incongLeft,180,1,0.61168
1,4,0,7,upper,congLeft,0,1,0.363365
1,4,0,8,upper,congRight,0,1,0.37144
1,4,0,9,upper,congLeft,0,1,0.34648
1,4,0,10,centre,incongLeft,0,1,0.602065
1,4,0,11,upper,congRight,0,1,0.33539
1,4,0,12,lower,congRight,180,1,0.36104
1,4,0,13,lower,incongRight,180,1,0.400165
1,4,0,14,centre,incongRight,180,1,0.56538
1,4,0,15,centre,congLeft,0,1,0.432145
1,4,0,16,centre,congRight,0,1,0.445995
1,4,0,17,blank,incongRight,0,1,0.72072
1,4,0,18,blank,congLeft,0,1,0.48233
1,4,0,19,centre,congRight,0,1,0.407345
1,4,0,20,centre,incongLeft,180,1,0.71207
1,4,0,21,blank,congRight,180,1,0.628245
1,4,0,22,blank,congRight,180,1,0.611865
1,4,0,23,blank,congLeft,0,1,0.46873
1,4,0,24,blank,congLeft,180,1,0.378165
1,4,0,25,centre,incongRight,180,1,0.57056
1,4,0,26,centre,incongRight,0,1,0.527665
1,4,0,27,upper,incongLeft,0,0,0.334585
1,4,0,28,blank,incongRight,180,1,0.699065
1,4,0,29,lower,congRight,180,1,0.37106
1,4,0,30,lower,incongRight,180,1,0.431215
1,4,0,31,centre,incongLeft,180,1,0.56764
1,4,0,32,lower,incongLeft,180,1,0.471645
1,4,0,33,blank,incongLeft,0,1,0.629435
1,4,0,34,lower,congLeft,180,1,0.4123
1,4,0,35,centre,incongRight,0,1,0.57872
1,4,0,36,blank,congLeft,180,1,0.577765
1,4,0,37,blank,incongRight,0,1,0.594275
1,4,0,38,lower,congLeft,180,1,0.34545
1,4,0,39,centre,congLeft,180,1,0.42895
1,4,0,40,centre,congLeft,180,1,0.36278
1,4,0,41,centre,congLeft,0,1,0.353675
1,4,0,42,blank,congRight,0,1,0.63942
1,4,0,43,blank,congRight,0,1,0.43028
1,4,0,44,upper,incongRight,0,1,0.50581
1,4,0,45,upper,incongRight,0,1,0.450675
1,4,0,46,blank,incongLeft,0,1,0.58898
1,4,0,47,centre,congRight,180,1,0.52828
1,4,0,48,centre,incongLeft,0,1,0.670805
1,5,7,1,upper,incongLeft,0,1,0.453585
1,5,7,2,upper,congLeft,0,1,0.34674
1,5,7,3,lower,incongRight,180,1,0.39597
1,5,7,4,centre,congRight,180,1,0.429825
1,5,7,5,blank,incongLeft,0,1,0.46559
1,5,7,6,centre,incongLeft,180,1,0.529175
1,5,7,7,blank,congRight,180,1,0.53397
1,5,7,8,upper,incongRight,0,1,0.445895
1,5,7,9,blank,incongLeft,180,1,0.59941
1,5,7,10,blank,congRight,180,1,0.46187
1,5,7,11,upper,congRight,0,1,0.412275
1,5,7,12,blank,congRight,0,1,0.436315
1,5,7,13,blank,congLeft,180,1,0.62672
1,5,7,14,centre,incongRight,0,1,0.53282
1,5,7,15,blank,congLeft,180,1,0.431265
1,5,7,16,blank,incongLeft,0,1,0.547575
1,5,7,17,blank,incongLeft,180,1,0.511525
1,5,7,18,blank,incongRight,180,1,0.58043
1,5,7,19,blank,incongRight,180,0,0.43666
1,5,7,20,centre,congRight,0,1,0.446855
1,5,7,21,blank,congLeft,0,1,0.43662
1,5,7,22,centre,incongRight,180,1,0.579455
1,5,7,23,lower,incongRight,180,1,0.380045
1,5,7,24,centre,congLeft,180,1,0.43471
1,5,7,25,lower,congLeft,180,1,0.36513
1,5,7,26,lower,congRight,180,1,0.401815
1,5,7,27,lower,congRight,180,1,0.355405
1,5,7,28,lower,incongLeft,180,1,0.452805
1,5,7,29,upper,congRight,0,1,0.39706
1,5,7,30,blank,incongRight,0,1,0.548005
1,5,7,31,centre,incongLeft,0,1,0.543995
1,5,7,32,centre,congLeft,0,1,0.381985
1,5,7,33,blank,congRight,0,1,0.41174
1,5,7,34,upper,congLeft,0,1,0.362585
1,5,7,35,centre,congLeft,180,1,0.4312
1,5,7,36,centre,incongRight,0,0,0.349185
1,5,7,37,upper,incongRight,0,1,0.41279
1,5,7,38,centre,congRight,0,1,0.41428
1,5,7,39,lower,congLeft,180,1,0.397995
1,5,7,40,centre,incongLeft,180,1,0.728595
1,5,7,41,upper,incongLeft,0,1,0.451575
1,5,7,42,centre,incongRight,180,1,0.596595
1,5,7,43,centre,congRight,180,1,0.43033
1,5,7,44,lower,incongLeft,180,1,0.46984
1,5,7,45,centre,incongLeft,0,1,0.562265
1,5,7,46,blank,incongRight,0,1,0.536195
1,5,7,47,blank,congLeft,0,1,0.444145
1,5,7,48,centre,congLeft,0,1,0.41402
1,6,4,1,blank,congLeft,0,1,0.471685
1,6,4,2,centre,incongRight,180,1,0.62835
1,6,4,3,centre,congLeft,0,1,0.411415
1,6,4,4,centre,incongRight,180,1,0.538475
1,6,4,5,lower,incongLeft,180,1,0.480875
1,6,4,6,lower,congRight,180,1,0.36369
1,6,4,7,upper,incongRight,0,1,0.41617
1,6,4,8,blank,congRight,0,1,0.4627
1,6,4,9,lower,congRight,180,1,0.32985
1,6,4,10,centre,congLeft,180,1,0.430805
1,6,4,11,centre,incongLeft,0,1,0.51745
1,6,4,12,blank,congRight,0,1,0.42891
1,6,4,13,centre,congRight,0,1,0.37279
1,6,4,14,centre,congRight,0,1,0.315645
1,6,4,15,upper,congRight,0,1,0.29711
1,6,4,16,blank,incongRight,180,1,0.564175
1,6,4,17,blank,congLeft,180,1,0.42849
1,6,4,18,blank,congRight,180,1,0.41524
1,6,4,19,centre,incongLeft,180,1,0.564095
1,6,4,20,lower,congLeft,180,1,0.479745
1,6,4,21,centre,incongLeft,0,1,0.51321
1,6,4,22,blank,congRight,180,1,0.43695
1,6,4,23,centre,congRight,180,1,0.384025
1,6,4,24,lower,incongLeft,180,1,0.449975
1,6,4,25,blank,congLeft,0,1,0.470705
1,6,4,26,blank,incongLeft,180,1,0.58052
1,6,4,27,lower,congLeft,180,1,0.365925
1,6,4,28,upper,incongLeft,0,1,0.397595
1,6,4,29,centre,congLeft,0,1,0.39759
1,6,4,30,upper,congLeft,0,1,0.36631
1,6,4,31,blank,incongLeft,0,1,0.56563
1,6,4,32,centre,incongLeft,180,1,0.5624
1,6,4,33,centre,incongRight,0,1,0.54611
1,6,4,34,centre,congLeft,180,1,0.366855
1,6,4,35,upper,incongLeft,0,1,0.43517
1,6,4,36,blank,incongLeft,180,1,0.504965
1,6,4,37,centre,congRight,180,1,0.42052
1,6,4,38,upper,incongRight,0,1,0.429505
1,6,4,39,upper,congRight,0,1,0.33339
1,6,4,40,blank,incongRight,180,1,0.57848
1,6,4,41,blank,congLeft,180,1,0.478665
1,6,4,42,blank,incongRight,0,0,0.461925
1,6,4,43,blank,incongLeft,0,1,0.66096
1,6,4,44,lower,incongRight,180,1,1.063635
1,6,4,45,lower,incongRight,180,1,0.37909
1,6,4,46,upper,congLeft,0,1,0.4491
1,6,4,47,blank,incongRight,0,1,0.577025
1,6,4,48,centre,incongRight,0,1,0.51069
1,7,7,1,blank,incongLeft,0,1,0.56145
1,7,7,2,upper,incongRight,0,1,0.477995
1,7,7,3,centre,incongLeft,0,1,0.554685
1,7,7,4,upper,congRight,0,1,0.38512
1,7,7,5,centre,congLeft,180,1,0.47932
1,7,7,6,upper,congLeft,0,1,0.382535
1,7,7,7,blank,incongLeft,0,1,0.602315
1,7,7,8,upper,incongLeft,0,1,0.329725
1,7,7,9,upper,incongLeft,0,1,0.351515
1,7,7,10,upper,incongRight,0,1,0.453225
1,7,7,11,blank,congRight,180,1,0.53347
1,7,7,12,blank,congLeft,180,1,0.671075
1,7,7,13,lower,congLeft,180,1,0.3612
1,7,7,14,blank,congRight,180,1,0.446835
1,7,7,15,blank,incongLeft,180,1,0.569075
1,7,7,16,centre,incongRight,0,0,0.41284
1,7,7,17,blank,incongRight,0,1,0.541275
1,7,7,18,centre,congRight,0,1,0.363965
1,7,7,19,blank,congRight,0,1,0.45055
1,7,7,20,upper,congRight,0,1,0.300385
1,7,7,21,centre,incongLeft,0,1,0.50505
1,7,7,22,lower,incongLeft,180,1,0.3474
1,7,7,23,blank,incongRight,180,1,0.56875
1,7,7,24,centre,congRight,180,1,0.40667
1,7,7,25,lower,congRight,180,1,0.328955
1,7,7,26,upper,congLeft,0,1,0.428715
1,7,7,27,centre,incongRight,180,0,0.369545
1,7,7,28,centre,congLeft,0,1,0.42211
1,7,7,29,centre,congLeft,0,1,0.394825
1,7,7,30,blank,congLeft,0,1,0.483375
1,7,7,31,lower,incongRight,180,1,0.412805
1,7,7,32,blank,congRight,0,1,0.479805
1,7,7,33,centre,incongLeft,180,1,0.61366
1,7,7,34,centre,congRight,180,1,0.50389
1,7,7,35,blank,congLeft,180,1,0.486275
1,7,7,36,centre,incongRight,0,1,0.57771
1,7,7,37,blank,congLeft,0,1,0.47857
1,7,7,38,lower,incongLeft,180,1,0.40312
1,7,7,39,blank,incongLeft,180,1,0.645605
1,7,7,40,centre,incongLeft,180,1,0.556275
1,7,7,41,blank,incongRight,180,1,0.59663
1,7,7,42,centre,congLeft,180,1,0.412115
1,7,7,43,centre,congRight,0,1,0.46222
1,7,7,44,lower,congLeft,180,1,0.4139
1,7,7,45,centre,incongRight,180,1,0.5629
1,7,7,46,blank,incongRight,0,1,0.568385
1,7,7,47,lower,congRight,180,1,0.3437
1,7,7,48,lower,incongRight,180,1,0.553045
1,8,4,1,blank,congLeft,180,1,0.53811
1,8,4,2,lower,congLeft,180,1,0.332185
1,8,4,3,centre,congRight,180,1,0.41236
1,8,4,4,lower,congRight,180,1,0.32283
1,8,4,5,lower,incongLeft,180,1,0.510005
1,8,4,6,upper,congRight,0,1,0.378555
1,8,4,7,centre,incongLeft,180,1,0.532275
1,8,4,8,centre,congRight,0,1,0.38041
1,8,4,9,blank,incongLeft,0,1,0.569705
1,8,4,10,blank,incongRight,0,1,0.528565
1,8,4,11,upper,incongRight,0,1,0.500265
1,8,4,12,centre,incongLeft,180,1,0.64519
1,8,4,13,centre,incongRight,0,1,0.50266
1,8,4,14,upper,incongLeft,0,1,0.47093
1,8,4,15,blank,congRight,180,1,0.49644
1,8,4,16,blank,incongLeft,180,1,0.545965
1,8,4,17,lower,incongLeft,180,1,0.46442
1,8,4,18,blank,congLeft,0,1,0.41026
1,8,4,19,blank,congLeft,180,1,0.34495
1,8,4,20,centre,congRight,180,1,0.49679
1,8,4,21,centre,incongRight,180,1,0.521915
1,8,4,22,blank,incongRight,180,1,0.533295
1,8,4,23,centre,incongLeft,0,1,0.51238
1,8,4,24,lower,incongRight,180,1,0.37868
1,8,4,25,blank,congRight,0,1,0.413345
1,8,4,26,upper,congLeft,0,1,0.37913
1,8,4,27,upper,incongLeft,0,1,0.451025
1,8,4,28,blank,incongLeft,0,1,0.505465
1,8,4,29,upper,incongRight,0,1,0.43503
1,8,4,30,centre,congLeft,0,1,0.36482
1,8,4,31,lower,incongRight,180,1,0.379925
1,8,4,32,lower,congLeft,180,1,0.38277
1,8,4,33,blank,congLeft,0,1,0.428305
1,8,4,34,centre,congLeft,180,1,0.379575
1,8,4,35,blank,incongLeft,180,0,0.5006
1,8,4,36,centre,congLeft,0,1,0.39936
1,8,4,37,upper,congRight,0,1,0.299055
1,8,4,38,centre,congRight,0,1,0.366255
1,8,4,39,centre,incongLeft,0,1,0.52839
1,8,4,40,centre,congLeft,180,1,0.483925
1,8,4,41,upper,congLeft,0,1,0.38691
1,8,4,42,blank,incongRight,0,1,0.67857
1,8,4,43,centre,incongRight,180,1,0.51851
1,8,4,44,centre,incongRight,0,1,0.512935
1,8,4,45,blank,incongRight,180,1,0.56322
1,8,4,46,blank,congRight,180,1,0.466625
1,8,4,47,blank,congRight,0,1,0.36299
1,8,4,48,lower,congRight,180,1,0.347825
1,9,7,1,upper,incongLeft,0,1,0.480505
1,9,7,2,centre,incongLeft,180,1,0.51248
1,9,7,3,lower,congRight,180,1,0.393375
1,9,7,4,centre,congRight,180,1,0.434925
1,9,7,5,blank,incongRight,0,1,0.546325
1,9,7,6,blank,congRight,180,1,0.486115
1,9,7,7,blank,congRight,0,1,0.45113
1,9,7,8,centre,incongRight,0,1,0.52835
1,9,7,9,upper,congLeft,0,1,0.42818
1,9,7,10,centre,incongRight,180,1,0.635865
1,9,7,11,lower,congLeft,180,1,0.36583
1,9,7,12,blank,congRight,0,1,0.44628
1,9,7,13,centre,congRight,180,1,0.429395
1,9,7,14,centre,incongRight,0,1,0.49559
1,9,7,15,centre,congLeft,180,1,0.47927
1,9,7,16,upper,incongRight,0,0,0.31831
1,9,7,17,upper,incongLeft,0,1,0.472585
1,9,7,18,centre,congRight,0,1,0.449275
1,9,7,19,blank,incongLeft,0,1,0.54266
1,9,7,20,blank,incongLeft,180,1,0.66175
1,9,7,21,centre,incongLeft,0,1,0.49886
1,9,7,22,blank,incongLeft,180,1,0.59572
1,9,7,23,lower,congRight,180,1,0.39759
1,9,7,24,centre,congLeft,180,1,0.430515
1,9,7,25,upper,congLeft,0,1,0.354925
1,9,7,26,blank,congLeft,0,1,0.46369
1,9,7,27,centre,incongLeft,0,1,0.562235
1,9,7,28,upper,congRight,0,1,0.373675
1,9,7,29,blank,incongRight,0,1,0.63201
1,9,7,30,lower,incongRight,180,1,0.46924
1,9,7,31,blank,incongLeft,0,1,0.61801
1,9,7,32,centre,congRight,0,1,0.39559
1,9,7,33,centre,incongRight,180,1,0.546525
1,9,7,34,lower,incongLeft,180,1,0.477845
1,9,7,35,blank,incongRight,180,1,0.56173
1,9,7,36,upper,congRight,0,1,0.330035
1,9,7,37,blank,congRight,180,1,0.451225
1,9,7,38,upper,incongRight,0,1,0.31265
1,9,7,39,centre,congLeft,0,1,0.43429
1,9,7,40,lower,incongRight,180,1,0.429735
1,9,7,41,lower,congLeft,180,1,0.46916
1,9,7,42,centre,congLeft,0,1,0.4958
1,9,7,43,blank,incongRight,180,1,0.57225
1,9,7,44,lower,incongLeft,180,1,0.42837
1,9,7,45,blank,congLeft,180,1,0.45477
1,9,7,46,centre,incongLeft,180,1,0.59797
1,9,7,47,blank,congLeft,180,1,0.445975
1,9,7,48,blank,congLeft,0,1,0.462165
2,1,0,1,upper,congRight,0,1,0.484995
2,1,0,2,centre,incongLeft,180,0,0.609
2,1,0,3,centre,incongLeft,180,1,0.635625
2,1,0,4,upper,congRight,0,1,0.435915
2,1,0,5,lower,congRight,180,1,0.43296
2,1,0,6,centre,incongRight,180,1,0.71971
2,1,0,7,centre,congRight,180,1,0.57092
2,1,0,8,centre,incongRight,180,1,0.65204
2,1,0,9,blank,congRight,0,1,0.54254
2,1,0,10,centre,congRight,0,1,0.60167
2,1,0,11,centre,congLeft,180,1,0.502375
2,1,0,12,blank,congRight,180,1,0.61825
2,1,0,13,lower,incongRight,180,1,0.425165
2,1,0,14,blank,congLeft,180,1,0.72046
2,1,0,15,blank,incongRight,180,1,0.78608
2,1,0,16,lower,incongLeft,180,0,0.385045
2,1,0,17,centre,congRight,0,1,0.572585
2,1,0,18,lower,incongLeft,180,1,0.542375
2,1,0,19,blank,congLeft,0,1,0.570255
2,1,0,20,blank,congLeft,0,1,0.501835
2,1,0,21,centre,incongLeft,0,1,0.66804
2,1,0,22,blank,incongLeft,0,1,0.50221
2,1,0,23,upper,incongLeft,0,1,0.455585
2,1,0,24,upper,incongRight,0,1,0.61771
2,1,0,25,upper,incongLeft,0,1,0.484085
2,1,0,26,upper,congLeft,0,1,0.43496
2,1,0,27,lower,congRight,180,1,0.54121
2,1,0,28,upper,congLeft,0,1,0.37513
2,1,0,29,centre,incongRight,0,0,0.485625
2,1,0,30,centre,congLeft,0,1,0.474995
2,1,0,31,centre,congLeft,180,1,0.531
2,1,0,32,upper,incongRight,0,1,0.684915
2,1,0,33,blank,incongRight,0,1,0.620205
2,1,0,34,centre,incongRight,0,1,0.618875
2,1,0,35,centre,congLeft,0,1,0.534875
2,1,0,36,lower,congLeft,180,1,0.45166
2,1,0,37,blank,congLeft,180,1,0.491705
2,1,0,38,blank,incongLeft,180,1,0.56721
2,1,0,39,blank,incongLeft,180,1,0.469125
2,1,0,40,centre,congRight,180,1,0.57021
2,1,0,41,lower,congLeft,180,1,0.519085
2,1,0,42,blank,incongLeft,0,1,0.5365
2,1,0,43,blank,incongRight,180,0,0.41833
2,1,0,44,centre,incongLeft,0,1,0.586335
2,1,0,45,lower,incongRight,180,1,0.569625
2,1,0,46,blank,congRight,180,1,0.64942
2,1,0,47,blank,congRight,0,1,0.655125
2,1,0,48,blank,incongRight,0,1,0.955415
2,2,0,1,blank,incongRight,0,1,0.65808
2,2,0,2,blank,incongLeft,0,1,0.64729
2,2,0,3,centre,congLeft,180,1,0.942545
2,2,0,4,centre,incongLeft,180,1,0.83846
2,2,0,5,blank,incongLeft,180,1,0.56904
2,2,0,6,upper,incongLeft,0,1,0.589085
2,2,0,7,centre,congLeft,0,1,0.534705
2,2,0,8,lower,incongRight,180,1,0.55271
2,2,0,9,centre,congRight,0,1,0.75142
2,2,0,10,blank,congLeft,0,1,0.61979
2,2,0,11,lower,incongLeft,180,1,0.684205
2,2,0,12,blank,incongRight,0,1,0.685245
2,2,0,13,blank,incongRight,180,1,0.70946
2,2,0,14,upper,congLeft,0,1,0.469375
2,2,0,15,centre,congLeft,180,1,0.46842
2,2,0,16,upper,incongLeft,0,1,0.57504
2,2,0,17,upper,congLeft,0,1,0.437415
2,2,0,18,centre,incongRight,0,1,0.693255
2,2,0,19,upper,incongRight,0,1,0.53479
2,2,0,20,blank,congRight,0,1,0.984665
2,2,0,21,centre,incongLeft,0,1,0.65667
2,2,0,22,blank,incongLeft,0,1,0.60837
2,2,0,23,blank,congLeft,180,1,0.6195
2,2,0,24,centre,incongLeft,0,1,0.61846
2,2,0,25,blank,congLeft,180,1,0.475665
2,2,0,26,lower,incongRight,180,1,0.619375
2,2,0,27,centre,congRight,180,1,0.66992
2,2,0,28,centre,incongRight,180,1,0.568335
2,2,0,29,upper,congRight,0,1,0.489835
2,2,0,30,blank,congRight,180,1,0.469625
2,2,0,31,centre,incongLeft,180,0,0.435465
2,2,0,32,centre,congRight,0,1,0.469375
2,2,0,33,blank,congLeft,0,1,0.62037
2,2,0,34,upper,incongRight,0,1,0.61542
2,2,0,35,centre,congRight,180,1,0.439165
2,2,0,36,blank,incongLeft,180,1,0.71958
2,2,0,37,centre,incongRight,180,1,0.67379
2,2,0,38,lower,incongLeft,180,1,0.976375
2,2,0,39,upper,congRight,0,1,0.49883
2,2,0,40,lower,congRight,180,1,0.602665
2,2,0,41,blank,incongRight,180,1,0.61921
2,2,0,42,lower,congLeft,180,1,0.498505
2,2,0,43,centre,congLeft,0,1,0.486045
2,2,0,44,blank,congRight,180,1,0.586125
2,2,0,45,centre,incongRight,0,1,0.61917
2,2,0,46,lower,congLeft,180,1,0.469875
2,2,0,47,blank,congRight,0,1,0.60141
2,2,0,48,lower,congRight,180,1,0.53554
2,3,4,1,blank,incongLeft,180,1,0.70033
2,3,4,2,centre,incongLeft,180,1,0.656
2,3,4,3,blank,congLeft,0,1,0.48029
2,3,4,4,centre,congLeft,180,1,0.40429
2,3,4,5,upper,incongLeft,0,1,0.55396
2,3,4,6,blank,congRight,0,1,0.50025
2,3,4,7,blank,incongLeft,0,1,0.592165
2,3,4,8,upper,congLeft,0,1,0.38454
2,3,4,9,centre,incongLeft,180,0,0.60179
2,3,4,10,centre,congLeft,180,1,0.652375
2,3,4,11,centre,congRight,180,1,0.688665
2,3,4,12,centre,incongLeft,0,1,0.677415
2,3,4,13,lower,congRight,180,1,0.42529
2,3,4,14,centre,congLeft,0,1,0.451705
2,3,4,15,lower,congLeft,180,1,0.472625
2,3,4,16,blank,congLeft,0,1,0.45325
2,3,4,17,lower,congRight,180,1,0.442915
2,3,4,18,blank,incongLeft,180,1,0.913625
2,3,4,19,upper,congLeft,0,1,0.385795
2,3,4,20,centre,incongRight,0,1,0.88633
2,3,4,21,lower,incongLeft,180,1,0.65179
2,3,4,22,blank,congRight,0,1,0.519165
2,3,4,23,blank,congRight,180,1,0.48654
2,3,4,24,blank,incongRight,180,1,0.75254
2,3,4,25,upper,incongLeft,0,1,0.519335
2,3,4,26,centre,congLeft,0,1,0.5355
2,3,4,27,upper,congRight,0,1,0.44229
2,3,4,28,blank,congRight,180,1,0.52104
2,3,4,29,centre,congRight,180,1,0.457795
2,3,4,30,lower,incongRight,180,1,0.473375
2,3,4,31,blank,congLeft,180,1,0.60054
2,3,4,32,centre,incongRight,180,1,0.60267
2,3,4,33,centre,incongLeft,0,0,0.50388
2,3,4,34,centre,incongRight,180,1,0.38571
2,3,4,35,blank,incongRight,180,1,0.5305
2,3,4,36,blank,congLeft,180,0,0.40304
2,3,4,37,lower,congLeft,180,1,0.50071
2,3,4,38,centre,incongRight,0,0,0.48525
2,3,4,39,blank,incongRight,0,1,0.718835
2,3,4,40,lower,incongRight,180,1,0.467375
2,3,4,41,blank,incongRight,0,1,0.641625
2,3,4,42,upper,incongRight,0,1,0.553995
2,3,4,43,upper,congRight,0,1,0.41996
2,3,4,44,centre,congRight,0,1,0.42075
2,3,4,45,upper,incongRight,0,1,0.584875
2,3,4,46,lower,incongLeft,180,1,0.53571
2,3,4,47,blank,incongLeft,0,1,0.635995
2,3,4,48,centre,congRight,0,1,0.669545
2,4,4,1,lower,incongLeft,180,1,0.6095
2,4,4,2,centre,incongLeft,180,1,0.58471
2,4,4,3,lower,congRight,180,1,0.50417
2,4,4,4,centre,congRight,0,1,0.45871
2,4,4,5,centre,congLeft,0,1,0.501585
2,4,4,6,centre,congRight,0,1,0.34754
2,4,4,7,upper,congLeft,0,1,0.4415
2,4,4,8,blank,incongRight,180,1,0.71038
2,4,4,9,centre,congRight,180,1,0.403085
2,4,4,10,lower,congRight,180,1,0.40975
2,4,4,11,blank,incongRight,0,0,0.48721
2,4,4,12,centre,incongLeft,0,1,0.758745
2,4,4,13,blank,congRight,180,1,0.517835
2,4,4,14,blank,congLeft,0,1,0.45025
2,4,4,15,lower,incongLeft,180,0,0.41417
2,4,4,16,lower,congLeft,180,1,0.468
2,4,4,17,lower,congLeft,180,1,0.419205
2,4,4,18,blank,incongRight,180,1,0.63996
2,4,4,19,centre,congRight,180,1,0.505165
2,4,4,20,upper,congRight,0,1,0.469085
2,4,4,21,blank,congRight,0,1,0.502875
2,4,4,22,blank,congLeft,180,1,0.456665
2,4,4,23,upper,congRight,0,1,0.34204
2,4,4,24,blank,incongLeft,180,0,0.62558
2,4,4,25,centre,incongRight,180,1,0.629125
2,4,4,26,blank,incongRight,0,0,0.657335
2,4,4,27,blank,incongLeft,0,1,0.720585
2,4,4,28,blank,congLeft,180,1,0.47
2,4,4,29,centre,incongLeft,0,1,0.618125
2,4,4,30,blank,congLeft,0,1,0.52071
2,4,4,31,centre,congLeft,180,1,0.58579
2,4,4,32,centre,congLeft,0,1,0.658
2,4,4,33,upper,incongRight,0,1,0.605915
2,4,4,34,blank,congRight,0,1,0.57679
2,4,4,35,blank,incongLeft,180,1,0.703585
2,4,4,36,centre,incongRight,180,1,0.634665
2,4,4,37,lower,incongRight,180,1,0.518125
2,4,4,38,upper,incongLeft,0,1,0.552455
2,4,4,39,centre,incongRight,0,0,0.436045
2,4,4,40,upper,incongRight,0,1,0.523455
2,4,4,41,lower,incongRight,180,0,0.435125
2,4,4,42,centre,incongRight,0,1,0.589505
2,4,4,43,blank,congRight,180,1,0.685665
2,4,4,44,blank,incongLeft,0,1,0.621285
2,4,4,45,upper,congLeft,0,1,0.451665
2,4,4,46,centre,congLeft,180,1,0.520585
2,4,4,47,centre,incongLeft,180,0,0.43496
2,4,4,48,upper,incongLeft,0,1,0.503875
2,5,7,1,blank,incongRight,180,0,0.48954
2,5,7,2,upper,incongLeft,0,1,0.54216
2,5,7,3,centre,incongRight,180,1,0.63229
2,5,7,4,blank,congRight,0,1,0.55746
2,5,7,5,lower,incongLeft,180,0,0.38567
2,5,7,6,centre,incongLeft,0,1,0.71946
2,5,7,7,centre,congRight,0,1,0.40271
2,5,7,8,blank,congLeft,0,1,0.49271
2,5,7,9,centre,incongRight,0,1,0.602375
2,5,7,10,blank,congLeft,180,1,0.56904
2,5,7,11,blank,congRight,180,1,0.58846
2,5,7,12,lower,incongRight,180,1,0.60817
2,5,7,13,upper,congRight,0,1,0.46867
2,5,7,14,centre,congLeft,180,1,0.480415
2,5,7,15,lower,congRight,180,1,0.435035
2,5,7,16,centre,congLeft,180,1,0.484835
2,5,7,17,upper,incongLeft,0,1,0.51429
2,5,7,18,centre,congLeft,0,1,0.60946
2,5,7,19,upper,congRight,0,1,0.503
2,5,7,20,centre,congLeft,0,1,0.45279
2,5,7,21,centre,congRight,180,1,0.571875
2,5,7,22,lower,incongRight,180,1,0.635455
2,5,7,23,upper,incongRight,0,1,0.54975
2,5,7,24,centre,congRight,0,1,0.6345
2,5,7,25,lower,incongLeft,180,1,0.51917
2,5,7,26,blank,congRight,180,0,0.598625
2,5,7,27,lower,congLeft,180,1,0.51754
2,5,7,28,blank,incongLeft,0,1,0.802795
2,5,7,29,blank,congRight,0,1,0.819125
2,5,7,30,blank,incongRight,0,1,0.800835
2,5,7,31,upper,incongRight,0,1,0.618955
2,5,7,32,upper,congLeft,0,1,0.58525
2,5,7,33,blank,incongLeft,180,1,0.903955
2,5,7,34,centre,incongLeft,180,1,0.63625
2,5,7,35,blank,incongRight,180,1,0.72367
2,5,7,36,centre,incongLeft,0,1,0.769295
2,5,7,37,lower,congRight,180,1,0.486
2,5,7,38,upper,congLeft,0,1,0.52329
2,5,7,39,blank,congLeft,0,1,0.558665
2,5,7,40,centre,incongRight,180,1,0.68858
2,5,7,41,centre,incongRight,0,1,0.669705
2,5,7,42,lower,congLeft,180,1,0.501625
2,5,7,43,blank,incongRight,0,1,0.573835
2,5,7,44,blank,congLeft,180,1,0.57604
2,5,7,45,centre,incongLeft,180,1,0.818
2,5,7,46,centre,congRight,180,1,0.588085
2,5,7,47,blank,incongLeft,180,1,0.66733
2,5,7,48,blank,incongLeft,0,1,0.717585
2,6,7,1,lower,incongLeft,180,1,0.542585
2,6,7,2,centre,incongRight,180,1,0.76646
2,6,7,3,lower,incongLeft,180,1,0.488
2,6,7,4,centre,incongRight,180,1,0.618795
2,6,7,5,blank,congRight,180,1,0.59171
2,6,7,6,lower,congLeft,180,1,0.451915
2,6,7,7,centre,congRight,0,1,0.504965
2,6,7,8,blank,incongRight,180,1,0.60292
2,6,7,9,upper,congRight,0,1,0.371875
2,6,7,10,blank,incongLeft,180,1,0.58454
2,6,7,11,blank,congRight,0,1,0.439915
2,6,7,12,blank,incongRight,0,1,0.532125
2,6,7,13,centre,incongLeft,0,1,0.71037
2,6,7,14,upper,incongRight,0,1,0.53579
2,6,7,15,centre,congRight,180,1,0.507495
2,6,7,16,blank,incongLeft,0,0,0.46821
2,6,7,17,upper,incongRight,0,1,0.458085
2,6,7,18,upper,incongLeft,0,1,0.516205
2,6,7,19,upper,incongLeft,0,1,0.48721
2,6,7,20,centre,congRight,0,1,0.60729
2,6,7,21,blank,congLeft,0,1,0.65183
2,6,7,22,centre,congLeft,0,1,0.567205
2,6,7,23,blank,congLeft,0,1,0.69321
2,6,7,24,blank,congRight,0,1,0.487005
2,6,7,25,centre,congRight,180,1,0.48462
2,6,7,26,blank,congLeft,180,1,0.55429
2,6,7,27,centre,congLeft,180,1,0.45154
2,6,7,28,lower,congRight,180,1,0.41879
2,6,7,29,blank,congLeft,180,1,0.50362
2,6,7,30,upper,congLeft,0,1,0.38225
2,6,7,31,lower,congLeft,180,1,0.376625
2,6,7,32,blank,incongLeft,180,1,0.976915
2,6,7,33,blank,incongRight,180,1,0.71979
2,6,7,34,lower,incongRight,180,1,0.592
2,6,7,35,centre,incongLeft,0,1,0.684005
2,6,7,36,centre,congLeft,180,1,0.536375
2,6,7,37,centre,incongLeft,180,1,0.68542
2,6,7,38,centre,incongRight,0,0,0.452125
2,6,7,39,lower,incongRight,180,1,0.585335
2,6,7,40,blank,incongLeft,0,1,0.622295
2,6,7,41,centre,incongLeft,180,0,0.44158
2,6,7,42,blank,incongRight,0,1,0.623455
2,6,7,43,centre,incongRight,0,1,0.63721
2,6,7,44,upper,congRight,0,1,0.493505
2,6,7,45,lower,congRight,180,1,0.65575
2,6,7,46,upper,congLeft,0,1,0.568585
2,6,7,47,blank,congRight,180,1,0.618295
2,6,7,48,centre,congLeft,0,1,0.452875
2,7,0,1,centre,congLeft,180,1,0.569415
2,7,0,2,centre,congLeft,0,1,0.40608
2,7,0,3,centre,incongLeft,180,1,0.2995
2,7,0,4,blank,congRight,0,1,0.535585
2,7,0,5,lower,incongLeft,180,1,0.48575
2,7,0,6,blank,congRight,180,1,0.68533
2,7,0,7,upper,incongLeft,0,1,0.54879
2,7,0,8,centre,incongRight,0,1,0.60592
2,7,0,9,centre,incongLeft,0,1,0.733375
2,7,0,10,centre,congRight,0,1,0.568125
2,7,0,11,blank,incongRight,180,1,0.65242
2,7,0,12,upper,congRight,0,1,0.40292
2,7,0,13,lower,incongRight,180,1,0.525585
2,7,0,14,blank,incongRight,0,1,0.51796
2,7,0,15,blank,congRight,0,1,0.49246
2,7,0,16,upper,congRight,0,1,0.475585
2,7,0,17,upper,incongRight,0,0,0.443455
2,7,0,18,centre,congLeft,0,1,0.56629
2,7,0,19,blank,incongRight,0,1,0.48579
2,7,0,20,centre,congLeft,180,1,0.451
2,7,0,21,blank,incongRight,180,0,0.485745
2,7,0,22,lower,incongLeft,180,1,0.664255
2,7,0,23,centre,congRight,180,1,0.521215
2,7,0,24,lower,congRight,180,1,0.405545
2,7,0,25,upper,incongRight,0,0,0.369795
2,7,0,26,blank,congLeft,180,1,0.56867
2,7,0,27,centre,incongLeft,180,1,0.692375
2,7,0,28,blank,incongLeft,180,1,0.641795
2,7,0,29,centre,congRight,0,1,0.415585
2,7,0,30,centre,incongLeft,0,0,0.442125
2,7,0,31,centre,incongRight,180,1,0.60492
2,7,0,32,upper,incongLeft,0,1,0.486415
2,7,0,33,blank,incongLeft,0,1,0.651165
2,7,0,34,lower,congRight,180,1,0.453585
2,7,0,35,blank,incongLeft,0,1,0.556335
2,7,0,36,upper,congLeft,0,1,0.508875
2,7,0,37,centre,congRight,180,1,0.50163
2,7,0,38,centre,incongRight,0,1,0.584545
2,7,0,39,blank,congRight,180,1,0.640585
2,7,0,40,lower,congLeft,180,1,0.470165
2,7,0,41,lower,incongRight,180,1,0.66962
2,7,0,42,upper,congLeft,0,1,0.458585
2,7,0,43,blank,congLeft,180,1,0.5435
2,7,0,44,blank,congLeft,0,1,0.517585
2,7,0,45,centre,incongRight,180,1,0.70158
2,7,0,46,lower,congLeft,180,1,0.60279
2,7,0,47,blank,congLeft,0,1,0.60283
2,7,0,48,blank,incongLeft,180,1,0.73575
2,8,7,1,blank,congRight,180,1,0.50296
2,8,7,2,blank,incongLeft,0,0,0.481125
2,8,7,3,blank,incongRight,0,1,0.58779
2,8,7,4,blank,congLeft,180,1,0.486375
2,8,7,5,centre,congLeft,0,1,0.56729
2,8,7,6,blank,incongLeft,180,0,0.35133
2,8,7,7,blank,incongRight,0,1,0.57129
2,8,7,8,blank,congLeft,180,1,0.47558
2,8,7,9,blank,congRight,0,1,0.60279
2,8,7,10,upper,congRight,0,1,0.448285
2,8,7,11,upper,incongRight,0,1,0.520875
2,8,7,12,centre,congLeft,0,1,0.519205
2,8,7,13,blank,incongRight,180,1,0.667375
2,8,7,14,blank,congRight,0,1,0.437085
2,8,7,15,centre,congRight,180,1,0.417455
2,8,7,16,centre,incongLeft,0,0,0.43054
2,8,7,17,centre,incongRight,180,1,0.668545
2,8,7,18,lower,incongLeft,180,1,0.668085
2,8,7,19,lower,incongLeft,180,0,0.48558
2,8,7,20,lower,congRight,180,1,0.468165
2,8,7,21,lower,incongRight,180,1,0.436625
2,8,7,22,blank,congLeft,0,1,0.585165
2,8,7,23,lower,congLeft,180,1,0.583625
2,8,7,24,centre,incongRight,180,1,0.61946
2,8,7,25,centre,congRight,0,1,0.40171
2,8,7,26,upper,incongLeft,0,1,0.538335
2,8,7,27,lower,incongRight,180,1,0.46996
2,8,7,28,centre,congLeft,180,0,0.601585
2,8,7,29,centre,incongLeft,180,1,0.66821
2,8,7,30,upper,congLeft,0,1,0.46879
2,8,7,31,upper,congLeft,0,1,0.38471
2,8,7,32,blank,congLeft,0,1,0.619625
2,8,7,33,upper,incongLeft,0,1,0.56825
2,8,7,34,centre,congRight,0,0,0.435625
2,8,7,35,centre,incongRight,0,1,0.780585
2,8,7,36,centre,incongLeft,180,1,0.81817
2,8,7,37,upper,incongRight,0,1,0.48521
2,8,7,38,blank,congRight,180,1,0.59133
2,8,7,39,lower,congLeft,180,1,0.54767
2,8,7,40,lower,congRight,180,1,0.46996
2,8,7,41,blank,incongLeft,180,1,0.601835
2,8,7,42,centre,incongLeft,0,0,0.416795
2,8,7,43,upper,congRight,0,1,0.47025
2,8,7,44,centre,incongRight,0,1,0.585335
2,8,7,45,centre,congRight,180,1,0.4985
2,8,7,46,blank,incongLeft,0,0,0.50133
2,8,7,47,centre,congLeft,180,0,0.418035
2,8,7,48,blank,incongRight,180,0,0.718915
2,9,4,1,upper,incongLeft,0,0,0.468835
2,9,4,2,lower,congLeft,180,1,0.402705
2,9,4,3,blank,congLeft,0,1,0.601295
2,9,4,4,lower,congLeft,180,1,0.46867
2,9,4,5,blank,congRight,0,1,0.502335
2,9,4,6,blank,congRight,180,1,0.49275
2,9,4,7,lower,incongLeft,180,0,0.454005
2,9,4,8,blank,incongRight,0,1,0.59112
2,9,4,9,centre,congRight,0,1,0.570125
2,9,4,10,centre,incongRight,0,1,0.75271
2,9,4,11,blank,incongLeft,180,1,0.752335
2,9,4,12,centre,incongRight,0,1,0.619625
2,9,4,13,centre,congRight,180,1,0.52521
2,9,4,14,blank,incongRight,180,1,0.69283
2,9,4,15,centre,incongLeft,180,1,0.70138
2,9,4,16,centre,incongLeft,180,1,0.619085
2,9,4,17,upper,incongLeft,0,1,0.690995
2,9,4,18,blank,congRight,0,1,0.65354
2,9,4,19,upper,incongRight,0,1,0.55729
2,9,4,20,blank,congLeft,0,1,0.61892
2,9,4,21,upper,incongRight,0,1,0.58842
2,9,4,22,blank,congLeft,180,1,0.570875
2,9,4,23,centre,congRight,0,1,0.43654
2,9,4,24,blank,incongRight,180,1,0.88254
2,9,4,25,centre,congLeft,0,1,0.619125
2,9,4,26,centre,incongLeft,0,1,0.69179
2,9,4,27,lower,incongRight,180,1,0.623955
2,9,4,28,lower,congRight,180,1,0.699
2,9,4,29,blank,incongRight,0,1,0.65746
2,9,4,30,centre,congLeft,180,1,0.4855
2,9,4,31,blank,congLeft,180,1,0.52383
2,9,4,32,centre,incongRight,180,1,0.65163
2,9,4,33,centre,incongRight,180,1,0.684835
2,9,4,34,centre,congRight,180,1,0.63871
2,9,4,35,centre,incongLeft,0,1,0.73629
2,9,4,36,centre,congLeft,180,1,0.508505
2,9,4,37,upper,congLeft,0,1,0.501375
2,9,4,38,upper,congRight,0,1,0.64433
2,9,4,39,blank,congRight,180,1,0.469125
2,9,4,40,lower,incongLeft,180,1,0.68596
2,9,4,41,centre,congLeft,0,1,0.493
2,9,4,42,blank,incongLeft,0,1,0.76929
2,9,4,43,blank,incongLeft,0,1,0.674165
2,9,4,44,lower,congRight,180,1,0.426625
2,9,4,45,upper,congLeft,0,1,0.835915
2,9,4,46,blank,incongLeft,180,1,0.80971
2,9,4,47,upper,congRight,0,1,0.467585
2,9,4,48,lower,incongRight,180,1,0.683545
3,1,0,1,blank,incongLeft,180,1,0.730105
3,1,0,2,blank,incongRight,180,1,0.729635
3,1,0,3,centre,congRight,180,1,0.631045
3,1,0,4,blank,congRight,0,1,0.57628
3,1,0,5,centre,congLeft,0,1,0.44512
3,1,0,6,blank,congLeft,0,1,0.47881
3,1,0,7,centre,incongRight,180,1,0.74226
3,1,0,8,centre,congLeft,180,1,0.612765
3,1,0,9,centre,congLeft,0,1,0.467385
3,1,0,10,upper,congRight,0,1,0.466335
3,1,0,11,blank,congRight,180,1,0.506185
3,1,0,12,blank,incongLeft,180,1,0.59306
3,1,0,13,blank,congRight,0,1,0.478465
3,1,0,14,centre,congRight,0,1,0.47763
3,1,0,15,blank,incongLeft,0,0,0.47843
3,1,0,16,upper,incongLeft,0,1,0.50567
3,1,0,17,blank,congLeft,180,1,0.547045
3,1,0,18,centre,incongLeft,0,1,0.628805
3,1,0,19,upper,congLeft,0,1,0.44782
3,1,0,20,centre,congRight,0,1,0.596225
3,1,0,21,blank,incongRight,0,1,0.513045
3,1,0,22,blank,incongLeft,0,1,0.72835
3,1,0,23,centre,incongLeft,0,1,0.6805
3,1,0,24,upper,incongRight,0,1,0.492295
3,1,0,25,lower,incongRight,180,1,0.635565
3,1,0,26,upper,incongLeft,0,1,0.56311
3,1,0,27,lower,congLeft,180,1,0.630305
3,1,0,28,centre,congRight,180,1,0.550385
3,1,0,29,lower,incongLeft,180,1,0.53058
3,1,0,30,blank,congRight,180,1,0.594505
3,1,0,31,blank,incongRight,180,1,0.650635
3,1,0,32,centre,incongRight,0,1,0.713185
3,1,0,33,lower,congLeft,180,1,0.461185
3,1,0,34,upper,congLeft,0,1,0.451585
3,1,0,35,centre,incongLeft,180,1,0.632185
3,1,0,36,lower,congRight,180,1,0.523365
3,1,0,37,centre,incongLeft,180,1,0.66842
3,1,0,38,blank,incongRight,0,0,0.527805
3,1,0,39,lower,congRight,180,1,0.53484
3,1,0,40,blank,congLeft,0,1,0.601745
3,1,0,41,lower,incongLeft,180,1,0.56787
3,1,0,42,lower,incongRight,180,1,0.70173
3,1,0,43,centre,incongRight,180,1,0.718565
3,1,0,44,centre,congLeft,180,1,0.765485
3,1,0,45,upper,congRight,0,1,0.48485
3,1,0,46,blank,congLeft,180,1,0.60222
3,1,0,47,centre,incongRight,0,1,0.718515
3,1,0,48,upper,incongRight,0,1,0.474465
3,2,7,1,upper,incongRight,0,1,0.56939
3,2,7,2,centre,incongRight,0,1,0.669805
3,2,7,3,centre,incongLeft,0,1,0.69249
3,2,7,4,centre,incongLeft,180,1,0.720285
3,2,7,5,blank,incongRight,180,1,0.75256
3,2,7,6,centre,incongLeft,0,1,0.60242
3,2,7,7,upper,congRight,0,1,0.618845
3,2,7,8,upper,incongRight,0,1,0.51874
3,2,7,9,blank,incongLeft,0,1,0.70283
3,2,7,10,centre,congLeft,180,1,0.59042
3,2,7,11,blank,incongRight,180,1,0.651855
3,2,7,12,blank,congLeft,180,1,0.68591
3,2,7,13,blank,congRight,0,1,0.53486
3,2,7,14,lower,congLeft,180,1,0.43553
3,2,7,15,centre,incongRight,180,1,0.668285
3,2,7,16,upper,incongLeft,0,1,0.51611
3,2,7,17,blank,incongLeft,180,1,0.62882
3,2,7,18,centre,congRight,0,1,0.53919
3,2,7,19,blank,incongRight,0,1,0.62103
3,2,7,20,blank,congRight,0,1,0.50524
3,2,7,21,centre,congLeft,0,1,0.56566
3,2,7,22,centre,congRight,180,1,0.496445
3,2,7,23,lower,congRight,180,1,0.384655
3,2,7,24,blank,congLeft,0,1,0.51174
3,2,7,25,centre,incongRight,0,1,0.594155
3,2,7,26,blank,congLeft,0,1,0.566325
3,2,7,27,blank,congRight,180,1,0.53196
3,2,7,28,lower,incongLeft,180,1,0.49581
3,2,7,29,upper,congLeft,0,1,0.39868
3,2,7,30,centre,congLeft,0,1,0.465425
3,2,7,31,lower,congLeft,180,1,0.46957
3,2,7,32,centre,incongLeft,180,1,0.64837
3,2,7,33,centre,congRight,180,1,0.548985
3,2,7,34,lower,congRight,180,1,0.37268
3,2,7,35,centre,congLeft,180,1,0.4998
3,2,7,36,upper,incongLeft,0,1,0.53096
3,2,7,37,centre,congRight,0,1,0.60089
3,2,7,38,lower,incongLeft,180,1,0.43944
3,2,7,39,upper,congRight,0,1,0.448075
3,2,7,40,lower,incongRight,180,1,0.637895
3,2,7,41,blank,incongLeft,0,1,0.630765
3,2,7,42,blank,incongRight,0,1,0.66332
3,2,7,43,centre,incongRight,180,1,0.797925
3,2,7,44,blank,congRight,180,1,0.66541
3,2,7,45,blank,incongLeft,180,1,0.61462
3,2,7,46,lower,incongRight,180,1,0.481345
3,2,7,47,upper,congLeft,0,1,0.414685
3,2,7,48,blank,congLeft,180,1,0.614775
3,3,4,1,blank,incongLeft,180,1,0.68024
3,3,4,2,centre,incongLeft,0,1,0.663355
3,3,4,3,upper,incongRight,0,0,0.486615
3,3,4,4,centre,congLeft,0,1,0.54734
3,3,4,5,blank,incongRight,0,1,0.54915
3,3,4,6,centre,congLeft,0,1,0.50146
3,3,4,7,centre,congLeft,180,1,0.51582
3,3,4,8,blank,congLeft,0,1,0.49705
3,3,4,9,blank,congLeft,0,1,0.515455
3,3,4,10,centre,congRight,180,1,0.58092
3,3,4,11,lower,incongLeft,180,1,0.54905
3,3,4,12,upper,congLeft,0,1,0.41865
3,3,4,13,centre,incongLeft,180,0,0.43103
3,3,4,14,upper,congRight,0,1,0.48206
3,3,4,15,lower,incongRight,180,1,0.73885
3,3,4,16,blank,incongRight,180,1,0.631185
3,3,4,17,centre,congLeft,180,1,0.503845
3,3,4,18,upper,congRight,0,1,0.43617
3,3,4,19,centre,congRight,0,1,0.513985
3,3,4,20,centre,incongLeft,0,1,0.648375
3,3,4,21,centre,incongLeft,180,1,0.64822
3,3,4,22,centre,incongRight,0,1,0.63142
3,3,4,23,blank,congRight,0,1,0.56491
3,3,4,24,blank,incongRight,0,1,0.630355
3,3,4,25,centre,incongRight,180,1,0.68085
3,3,4,26,lower,congRight,180,1,0.44892
3,3,4,27,lower,incongRight,180,1,0.5327
3,3,4,28,lower,congRight,180,1,0.43161
3,3,4,29,lower,congLeft,180,1,0.4344
3,3,4,30,blank,congRight,180,1,0.717325
3,3,4,31,blank,congLeft,180,1,0.586205
3,3,4,32,centre,congRight,0,1,0.581985
3,3,4,33,lower,congLeft,180,1,0.42156
3,3,4,34,upper,incongLeft,0,1,0.548585
3,3,4,35,upper,congLeft,0,1,0.40102
3,3,4,36,upper,incongRight,0,1,0.486805
3,3,4,37,blank,congRight,0,1,0.56488
3,3,4,38,blank,incongLeft,180,1,0.83617
3,3,4,39,blank,incongLeft,0,1,0.68121
3,3,4,40,lower,incongLeft,180,1,0.531685
3,3,4,41,centre,incongRight,0,1,0.61487
3,3,4,42,upper,incongLeft,0,1,0.564
3,3,4,43,blank,congLeft,180,1,0.64823
3,3,4,44,blank,incongRight,180,1,0.68118
3,3,4,45,centre,congRight,180,1,0.51487
3,3,4,46,centre,incongRight,180,1,0.63163
3,3,4,47,blank,incongLeft,0,1,0.586925
3,3,4,48,blank,congRight,180,1,0.53254
3,4,0,1,blank,congRight,0,1,0.635765
3,4,0,2,centre,congLeft,180,1,0.486375
3,4,0,3,upper,incongLeft,0,1,0.55735
3,4,0,4,centre,congLeft,0,1,0.518755
3,4,0,5,lower,congRight,180,1,0.4355
3,4,0,6,centre,incongLeft,0,1,0.735125
3,4,0,7,blank,incongLeft,180,1,0.701385
3,4,0,8,blank,congLeft,180,1,0.60157
3,4,0,9,lower,incongRight,180,1,0.53479
3,4,0,10,blank,incongLeft,0,1,0.66465
3,4,0,11,lower,congRight,180,1,0.46814
3,4,0,12,lower,congLeft,180,1,0.45285
3,4,0,13,upper,congLeft,0,1,0.46859
3,4,0,14,centre,incongRight,180,1,0.784305
3,4,0,15,blank,incongRight,0,1,0.651495
3,4,0,16,centre,congRight,0,1,0.4851
3,4,0,17,centre,congRight,180,1,0.501555
3,4,0,18,centre,incongRight,0,1,0.63455
3,4,0,19,upper,incongRight,0,1,0.517965
3,4,0,20,upper,incongLeft,0,1,0.55148
3,4,0,21,blank,incongLeft,0,1,0.73503
3,4,0,22,upper,congRight,0,1,0.468775
3,4,0,23,blank,congRight,0,1,0.469225
3,4,0,24,blank,incongRight,0,1,0.553795
3,4,0,25,lower,congLeft,180,1,0.637055
3,4,0,26,blank,congRight,180,1,0.55201
3,4,0,27,centre,congRight,0,1,0.521015
3,4,0,28,blank,incongRight,180,0,0.767835
3,4,0,29,centre,incongLeft,180,1,0.801505
3,4,0,30,centre,congLeft,0,1,0.568425
3,4,0,31,upper,congRight,0,1,0.519295
3,4,0,32,blank,incongRight,180,1,0.884425
3,4,0,33,upper,congLeft,0,1,0.568195
3,4,0,34,blank,congLeft,180,1,0.585785
3,4,0,35,centre,incongLeft,180,1,0.6513
3,4,0,36,blank,incongLeft,180,1,0.635545
3,4,0,37,centre,incongLeft,0,1,0.78424
3,4,0,38,blank,congLeft,0,1,0.784945
3,4,0,39,lower,incongLeft,180,1,0.751995
3,4,0,40,upper,incongRight,0,1,0.635765
3,4,0,41,centre,incongRight,180,1,1.535565
3,4,0,42,blank,congLeft,0,1,0.56705
3,4,0,43,centre,congLeft,180,1,0.6857
3,4,0,44,centre,incongRight,0,1,0.685565
3,4,0,45,centre,congRight,180,1,0.602135
3,4,0,46,blank,congRight,180,1,0.701635
3,4,0,47,lower,incongRight,180,1,0.5514
3,4,0,48,lower,incongLeft,180,1,0.518085
3,5,4,1,centre,incongRight,0,1,0.752155
3,5,4,2,centre,congLeft,0,1,0.58462
3,5,4,3,upper,congRight,0,1,0.48425
3,5,4,4,upper,congLeft,0,1,0.483965
3,5,4,5,blank,incongLeft,180,1,0.834725
3,5,4,6,centre,congLeft,0,1,0.561225
3,5,4,7,blank,incongRight,0,1,0.585205
3,5,4,8,blank,incongRight,180,1,0.718605
3,5,4,9,blank,congLeft,180,1,0.56797
3,5,4,10,blank,congRight,180,1,0.61773
3,5,4,11,upper,congRight,0,1,0.48469
3,5,4,12,centre,incongRight,0,1,0.68647
3,5,4,13,centre,incongLeft,180,1,0.718945
3,5,4,14,centre,congRight,0,1,0.535325
3,5,4,15,blank,congLeft,180,1,0.617705
3,5,4,16,centre,congRight,180,1,0.56743
3,5,4,17,upper,incongLeft,0,1,0.685555
3,5,4,18,lower,congLeft,180,1,0.55203
3,5,4,19,blank,congRight,0,1,0.51973
3,5,4,20,upper,incongLeft,0,1,0.568005
3,5,4,21,centre,congLeft,180,1,0.51799
3,5,4,22,lower,congRight,180,1,0.45236
3,5,4,23,blank,incongRight,0,1,0.718775
3,5,4,24,centre,incongRight,180,1,0.71963
3,5,4,25,lower,incongRight,180,1,0.50205
3,5,4,26,centre,congLeft,180,1,0.634755
3,5,4,27,blank,incongLeft,0,1,0.718175
3,5,4,28,blank,congRight,0,1,0.650885
3,5,4,29,lower,incongLeft,180,1,0.55091
3,5,4,30,blank,incongLeft,0,1,0.68465
3,5,4,31,lower,incongLeft,180,1,0.602795
3,5,4,32,centre,congRight,180,1,0.701365
3,5,4,33,lower,congLeft,180,1,0.501395
3,5,4,34,centre,incongRight,180,1,0.71867
3,5,4,35,upper,congLeft,0,1,0.4515
3,5,4,36,blank,congLeft,0,1,0.502505
3,5,4,37,centre,incongLeft,0,1,0.731855
3,5,4,38,centre,congRight,0,1,0.535105
3,5,4,39,centre,incongLeft,0,1,0.684915
3,5,4,40,lower,congRight,180,1,0.535545
3,5,4,41,blank,congRight,180,1,0.51862
3,5,4,42,upper,incongRight,0,1,0.61844
3,5,4,43,lower,incongRight,180,1,0.618575
3,5,4,44,centre,incongLeft,180,1,0.66812
3,5,4,45,blank,incongRight,180,1,0.650675
3,5,4,46,blank,congLeft,0,1,0.550635
3,5,4,47,upper,incongRight,0,1,0.510915
3,5,4,48,blank,incongLeft,180,1,0.621945
3,6,0,1,lower,congRight,180,1,0.4506
3,6,0,2,lower,congLeft,180,1,0.499165
3,6,0,3,blank,incongLeft,180,1,0.57186
3,6,0,4,upper,incongLeft,0,1,0.59727
3,6,0,5,upper,incongRight,0,1,0.480975
3,6,0,6,blank,incongRight,0,1,0.56496
3,6,0,7,blank,congRight,180,1,0.5822
3,6,0,8,centre,congLeft,0,1,0.51433
3,6,0,9,centre,congLeft,180,1,0.43218
3,6,0,10,upper,incongRight,0,1,0.55007
3,6,0,11,lower,incongLeft,180,1,0.484015
3,6,0,12,centre,incongLeft,0,1,0.930515
3,6,0,13,lower,congRight,180,1,0.46415
3,6,0,14,upper,congRight,0,1,0.51275
3,6,0,15,blank,incongRight,0,1,0.58055
3,6,0,16,centre,congLeft,0,1,0.469705
3,6,0,17,lower,incongRight,180,1,0.584
3,6,0,18,centre,incongLeft,180,0,0.417345
3,6,0,19,upper,congRight,0,1,0.399685
3,6,0,20,lower,congLeft,180,1,0.37951
3,6,0,21,upper,congLeft,0,1,0.48319
3,6,0,22,blank,incongRight,180,1,0.66932
3,6,0,23,centre,congRight,0,1,0.44881
3,6,0,24,lower,incongLeft,180,1,0.44848
3,6,0,25,centre,congRight,0,1,0.447715
3,6,0,26,blank,congLeft,180,1,0.582875
3,6,0,27,blank,incongLeft,0,1,0.69986
3,6,0,28,centre,incongRight,180,1,0.768015
3,6,0,29,blank,congLeft,0,1,0.59844
3,6,0,30,upper,congLeft,0,1,0.397915
3,6,0,31,centre,congRight,180,1,0.44753
3,6,0,32,lower,incongRight,180,1,0.49758
3,6,0,33,blank,congRight,0,1,0.49912
3,6,0,34,centre,incongRight,0,1,0.63283
3,6,0,35,centre,incongLeft,0,1,0.61903
3,6,0,36,blank,incongLeft,180,1,0.69813
3,6,0,37,centre,congLeft,180,1,0.54851
3,6,0,38,centre,congRight,180,1,0.514495
3,6,0,39,blank,congRight,180,1,0.48185
3,6,0,40,upper,incongLeft,0,1,0.797675
3,6,0,41,blank,incongLeft,0,1,0.49856
3,6,0,42,centre,incongRight,180,1,0.597985
3,6,0,43,blank,congLeft,0,1,0.53311
3,6,0,44,blank,congRight,0,1,0.517125
3,6,0,45,centre,incongRight,0,1,0.497585
3,6,0,46,blank,incongRight,180,1,0.745695
3,6,0,47,blank,congLeft,180,1,0.605915
3,6,0,48,centre,incongLeft,180,1,0.631455
3,7,7,1,centre,congRight,180,1,0.539355
3,7,7,2,blank,congRight,0,1,0.481365
3,7,7,3,blank,incongRight,0,1,0.49894
3,7,7,4,upper,congRight,0,1,0.365615
3,7,7,5,centre,congLeft,0,1,0.515085
3,7,7,6,upper,incongRight,0,1,0.463985
3,7,7,7,blank,congLeft,0,1,0.781565
3,7,7,8,upper,incongRight,0,1,0.49815
3,7,7,9,blank,incongRight,180,1,0.730265
3,7,7,10,blank,incongRight,180,1,0.61622
3,7,7,11,blank,congRight,180,1,0.4704
3,7,7,12,lower,congLeft,180,1,0.41783
3,7,7,13,blank,incongLeft,0,1,0.64239
3,7,7,14,centre,congLeft,0,1,0.432285
3,7,7,15,upper,incongLeft,0,1,0.481485
3,7,7,16,upper,incongLeft,0,1,0.447685
3,7,7,17,centre,congLeft,180,1,0.54958
3,7,7,18,blank,congLeft,180,1,0.433895
3,7,7,19,blank,incongLeft,180,1,0.631475
3,7,7,20,blank,incongLeft,0,1,0.602145
3,7,7,21,blank,congRight,0,1,0.465305
3,7,7,22,lower,congRight,180,1,0.497755
3,7,7,23,blank,incongRight,0,1,0.715735
3,7,7,24,upper,congLeft,0,1,0.531285
3,7,7,25,blank,incongLeft,180,1,0.68083
3,7,7,26,centre,congRight,0,1,0.50485
3,7,7,27,upper,congLeft,0,0,0.397755
3,7,7,28,centre,incongRight,0,1,0.6318
3,7,7,29,centre,incongRight,180,1,0.65356
3,7,7,30,centre,congRight,180,1,0.45009
3,7,7,31,lower,congLeft,180,1,0.449585
3,7,7,32,lower,incongLeft,180,1,0.464625
3,7,7,33,blank,congLeft,0,1,0.572125
3,7,7,34,blank,congLeft,180,1,0.532675
3,7,7,35,centre,incongLeft,180,1,0.68016
3,7,7,36,centre,incongRight,0,1,0.680825
3,7,7,37,centre,incongRight,180,1,0.70333
3,7,7,38,lower,incongRight,180,1,0.50426
3,7,7,39,blank,congRight,180,1,0.497785
3,7,7,40,lower,congRight,180,1,0.41603
3,7,7,41,centre,incongLeft,180,1,0.63247
3,7,7,42,centre,incongLeft,0,1,0.78371
3,7,7,43,lower,incongLeft,180,1,0.464335
3,7,7,44,centre,congLeft,180,1,0.46542
3,7,7,45,centre,congRight,0,1,0.554545
3,7,7,46,upper,congRight,0,1,0.4162
3,7,7,47,centre,incongLeft,0,1,0.638375
3,7,7,48,lower,incongRight,180,1,0.46883
3,8,7,1,centre,congRight,180,1,0.55355
3,8,7,2,lower,incongLeft,180,1,0.52349
3,8,7,3,blank,congLeft,0,1,0.55276
3,8,7,4,centre,incongRight,180,1,0.61863
3,8,7,5,blank,congRight,180,1,0.511015
3,8,7,6,blank,incongLeft,0,1,0.66884
3,8,7,7,upper,incongRight,0,1,0.551535
3,8,7,8,centre,incongRight,0,1,0.671515
3,8,7,9,blank,incongRight,0,1,0.523625
3,8,7,10,centre,congRight,0,1,0.42421
3,8,7,11,lower,congLeft,180,1,0.486225
3,8,7,12,lower,congRight,180,1,0.468055
3,8,7,13,upper,incongRight,0,1,0.68548
3,8,7,14,upper,congLeft,0,1,0.518105
3,8,7,15,lower,incongRight,180,1,0.675075
3,8,7,16,lower,incongLeft,180,1,0.702705
3,8,7,17,centre,congRight,0,1,0.584075
3,8,7,18,blank,incongRight,180,1,0.70124
3,8,7,19,centre,incongLeft,180,1,0.81756
3,8,7,20,centre,incongRight,180,1,0.733065
3,8,7,21,blank,incongLeft,180,1,0.68448
3,8,7,22,blank,incongLeft,0,1,0.688885
3,8,7,23,centre,congLeft,180,1,0.551605
3,8,7,24,centre,congLeft,180,1,0.673785
3,8,7,25,centre,incongRight,0,0,0.50293
3,8,7,26,blank,incongLeft,180,1,0.666635
3,8,7,27,blank,incongRight,180,1,0.681065
3,8,7,28,blank,congLeft,0,1,0.55165
3,8,7,29,upper,incongLeft,0,1,0.86488
3,8,7,30,blank,congRight,0,1,0.547775
3,8,7,31,blank,congRight,0,1,0.484505
3,8,7,32,centre,congRight,180,0,0.58224
3,8,7,33,centre,congLeft,0,1,0.519715
3,8,7,34,lower,congRight,180,1,0.41066
3,8,7,35,upper,congRight,0,1,0.532485
3,8,7,36,centre,incongLeft,0,1,0.648805
3,8,7,37,upper,congRight,0,1,0.468605
3,8,7,38,lower,congLeft,180,1,0.599935
3,8,7,39,centre,congLeft,0,1,0.49861
3,8,7,40,lower,incongRight,180,1,0.547815
3,8,7,41,upper,incongLeft,0,1,0.55176
3,8,7,42,blank,congRight,180,1,0.581255
3,8,7,43,centre,incongLeft,180,1,0.63588
3,8,7,44,blank,congLeft,180,1,0.485895
3,8,7,45,blank,incongRight,0,1,0.631625
3,8,7,46,centre,incongLeft,0,1,0.66655
3,8,7,47,upper,congLeft,0,1,0.414405
3,8,7,48,blank,congLeft,180,1,0.56889
3,9,4,1,upper,congRight,0,1,0.441055
3,9,4,2,lower,congRight,180,1,0.453435
3,9,4,3,upper,incongLeft,0,1,0.569415
3,9,4,4,blank,incongRight,0,1,0.75191
3,9,4,5,blank,congRight,0,1,0.65635
3,9,4,6,lower,congRight,180,1,0.50149
3,9,4,7,upper,congRight,0,1,0.602585
3,9,4,8,centre,incongLeft,180,1,0.701675
3,9,4,9,centre,incongRight,0,1,0.66899
3,9,4,10,centre,congLeft,0,1,0.45337
3,9,4,11,blank,congLeft,180,1,0.586255
3,9,4,12,lower,incongRight,180,1,0.550985
3,9,4,13,blank,congLeft,0,1,0.5182
3,9,4,14,lower,incongLeft,180,1,0.518345
3,9,4,15,blank,incongLeft,0,1,0.751135
3,9,4,16,centre,congLeft,0,1,0.536015
3,9,4,17,blank,congRight,0,1,0.56949
3,9,4,18,upper,congLeft,0,1,0.486525
3,9,4,19,centre,incongRight,0,1,0.617785
3,9,4,20,centre,congRight,180,1,0.968275
3,9,4,21,blank,incongRight,180,1,0.66873
3,9,4,22,centre,incongLeft,0,1,0.63466
3,9,4,23,centre,congLeft,180,1,0.635965
3,9,4,24,blank,incongRight,180,1,0.670045
3,9,4,25,lower,incongLeft,180,1,0.709025
3,9,4,26,centre,congRight,180,1,0.540985
3,9,4,27,centre,congLeft,180,1,0.61907
3,9,4,28,centre,incongLeft,0,1,0.599175
3,9,4,29,centre,congRight,0,1,0.552575
3,9,4,30,lower,congLeft,180,1,0.534925
3,9,4,31,lower,incongRight,180,1,0.919065
3,9,4,32,centre,incongRight,180,1,0.635515
3,9,4,33,upper,incongRight,0,1,0.75113
3,9,4,34,blank,incongLeft,0,1,0.66785
3,9,4,35,blank,incongLeft,180,1,0.81384
3,9,4,36,upper,incongLeft,0,1,0.553345
3,9,4,37,blank,congLeft,180,1,0.66825
3,9,4,38,blank,incongLeft,180,1,0.680845
3,9,4,39,blank,incongRight,0,1,0.601685
3,9,4,40,upper,congLeft,0,1,0.519145
3,9,4,41,blank,congRight,180,1,0.46823
3,9,4,42,blank,congRight,180,1,0.60091
3,9,4,43,upper,incongRight,0,1,0.61702
3,9,4,44,centre,incongRight,180,1,0.74745
3,9,4,45,centre,congRight,0,1,0.6872
3,9,4,46,centre,incongLeft,180,1,0.88055
3,9,4,47,blank,congLeft,0,1,0.83083
3,9,4,48,lower,congLeft,180,1,0.59861
4,1,4,1,blank,congLeft,0,1,0.6344
4,1,4,2,centre,incongRight,0,1,0.62317
4,1,4,3,lower,congRight,180,1,0.474805
4,1,4,4,lower,congLeft,180,1,0.43264
4,1,4,5,blank,incongRight,0,1,0.68995
4,1,4,6,blank,incongRight,180,1,0.725755
4,1,4,7,lower,incongLeft,180,1,0.527405
4,1,4,8,centre,congLeft,0,1,0.4849
4,1,4,9,lower,incongLeft,180,1,0.53532
4,1,4,10,lower,congRight,180,1,0.406135
4,1,4,11,blank,congLeft,0,1,0.554295
4,1,4,12,upper,incongRight,0,1,0.492685
4,1,4,13,centre,incongLeft,0,1,0.587275
4,1,4,14,blank,incongLeft,180,1,0.78952
4,1,4,15,upper,incongLeft,0,1,0.565995
4,1,4,16,upper,congLeft,0,1,0.44277
4,1,4,17,centre,incongRight,0,1,0.583965
4,1,4,18,centre,incongLeft,180,0,0.838325
4,1,4,19,centre,congRight,0,1,0.55546
4,1,4,20,centre,congRight,0,1,0.477735
4,1,4,21,upper,congLeft,0,1,0.45742
4,1,4,22,lower,incongRight,180,1,0.583825
4,1,4,23,centre,incongLeft,0,1,0.650305
4,1,4,24,blank,incongRight,0,1,0.62153
4,1,4,25,lower,incongRight,180,1,0.734515
4,1,4,26,blank,incongLeft,0,1,0.661735
4,1,4,27,blank,incongLeft,180,1,0.668805
4,1,4,28,centre,congRight,180,1,0.6267
4,1,4,29,blank,congRight,180,1,0.52737
4,1,4,30,upper,incongRight,0,1,0.53906
4,1,4,31,blank,congLeft,180,1,0.57333
4,1,4,32,blank,incongRight,180,1,0.883345
4,1,4,33,blank,incongLeft,0,1,0.617025
4,1,4,34,centre,congLeft,0,1,0.766315
4,1,4,35,upper,congRight,0,1,0.495795
4,1,4,36,blank,congLeft,180,1,0.724755
4,1,4,37,centre,congLeft,180,1,0.51758
4,1,4,38,blank,congRight,180,1,0.55696
4,1,4,39,centre,congLeft,180,1,1.283225
4,1,4,40,centre,congRight,180,0,1.117195
4,1,4,41,centre,incongLeft,180,1,0.77761
4,1,4,42,lower,congLeft,180,1,0.567925
4,1,4,43,upper,incongLeft,0,1,0.518295
4,1,4,44,blank,congRight,0,1,0.468695
4,1,4,45,blank,congRight,0,1,0.53427
4,1,4,46,upper,congRight,0,1,0.44918
4,1,4,47,centre,incongRight,180,1,0.65323
4,1,4,48,centre,incongRight,180,1,0.656255
4,2,0,1,centre,congRight,0,1,0.802305
4,2,0,2,blank,incongLeft,0,1,0.56299
4,2,0,3,centre,incongLeft,180,1,0.742665
4,2,0,4,centre,incongLeft,0,1,0.58192
4,2,0,5,blank,congLeft,0,1,0.48218
4,2,0,6,blank,incongLeft,180,1,0.66266
4,2,0,7,upper,incongLeft,0,1,0.535835
4,2,0,8,centre,congRight,180,1,0.461955
4,2,0,9,upper,incongRight,0,1,0.51348
4,2,0,10,upper,incongRight,0,1,0.545385
4,2,0,11,blank,congLeft,180,1,0.570085
4,2,0,12,blank,congRight,0,1,0.96855
4,2,0,13,blank,congLeft,0,1,0.945535
4,2,0,14,centre,incongLeft,180,1,0.994445
4,2,0,15,upper,congLeft,0,1,0.476735
4,2,0,16,centre,congRight,0,1,0.629045
4,2,0,17,blank,congLeft,180,1,0.55977
4,2,0,18,upper,incongLeft,0,1,0.58045
4,2,0,19,centre,congLeft,0,1,0.548045
4,2,0,20,blank,incongRight,0,1,0.601455
4,2,0,21,blank,incongRight,0,1,0.543485
4,2,0,22,centre,incongRight,0,1,0.534
4,2,0,23,lower,incongLeft,180,1,0.596235
4,2,0,24,upper,congRight,0,1,0.40523
4,2,0,25,lower,congRight,180,1,0.51615
4,2,0,26,lower,incongLeft,180,1,0.779315
4,2,0,27,blank,congRight,0,1,0.51227
4,2,0,28,lower,congLeft,180,1,0.53061
4,2,0,29,centre,incongLeft,0,0,0.403485
4,2,0,30,upper,congLeft,0,1,0.55675
4,2,0,31,centre,congRight,180,1,0.5457
4,2,0,32,centre,congLeft,180,1,0.747215
4,2,0,33,lower,incongRight,180,1,0.59979
4,2,0,34,upper,congRight,0,1,0.490655
4,2,0,35,centre,congLeft,180,1,0.57972
4,2,0,36,blank,congRight,180,1,0.78013
4,2,0,37,blank,incongRight,180,1,0.594145
4,2,0,38,lower,congRight,180,1,0.511695
4,2,0,39,blank,incongRight,180,1,0.5796
4,2,0,40,lower,incongRight,180,1,0.551695
4,2,0,41,centre,incongRight,180,1,0.51115
4,2,0,42,blank,congRight,180,1,0.48007
4,2,0,43,centre,incongRight,0,1,0.667595
4,2,0,44,centre,congLeft,0,1,0.61433
4,2,0,45,blank,incongLeft,180,1,0.66856
4,2,0,46,lower,congLeft,180,1,0.48347
4,2,0,47,blank,incongLeft,0,1,0.71909
4,2,0,48,centre,incongRight,180,1,0.69701
4,3,7,1,centre,incongRight,180,1,0.703135
4,3,7,2,upper,incongLeft,0,1,0.494515
4,3,7,3,blank,congRight,0,1,0.760735
4,3,7,4,blank,incongRight,0,1,0.643755
4,3,7,5,centre,incongRight,180,1,0.733895
4,3,7,6,upper,congLeft,0,1,0.392835
4,3,7,7,blank,congRight,180,1,0.574285
4,3,7,8,centre,congRight,180,1,0.59253
4,3,7,9,upper,incongLeft,0,1,0.507315
4,3,7,10,lower,incongLeft,180,0,0.4275
4,3,7,11,centre,incongLeft,180,1,0.67439
4,3,7,12,lower,incongRight,180,1,0.61097
4,3,7,13,blank,incongRight,180,1,0.55539
4,3,7,14,upper,incongRight,0,1,0.600325
4,3,7,15,lower,congRight,180,1,0.64366
4,3,7,16,upper,congRight,0,1,0.54618
4,3,7,17,blank,incongRight,0,1,0.63779
4,3,7,18,centre,congRight,0,1,0.54437
4,3,7,19,upper,congLeft,0,1,0.462265
4,3,7,20,centre,incongRight,0,1,0.623235
4,3,7,21,lower,incongLeft,180,1,0.59591
4,3,7,22,centre,congLeft,180,1,0.482425
4,3,7,23,lower,incongRight,180,1,0.668015
4,3,7,24,centre,congRight,0,1,0.52729
4,3,7,25,blank,incongLeft,0,1,0.831685
4,3,7,26,blank,incongLeft,180,1,0.696315
4,3,7,27,blank,congLeft,0,1,0.567085
4,3,7,28,blank,incongLeft,0,1,0.6407
4,3,7,29,centre,incongLeft,0,1,0.71296
4,3,7,30,centre,congLeft,0,1,0.516665
4,3,7,31,blank,congLeft,180,1,0.69615
4,3,7,32,centre,congRight,180,1,0.529625
4,3,7,33,centre,congLeft,180,1,0.416325
4,3,7,34,centre,incongLeft,0,1,0.64637
4,3,7,35,centre,incongLeft,180,1,0.663375
4,3,7,36,blank,congRight,0,1,0.56456
4,3,7,37,centre,congLeft,0,1,0.47666
4,3,7,38,blank,incongLeft,180,0,0.552455
4,3,7,39,centre,incongRight,0,1,0.584445
4,3,7,40,upper,incongRight,0,1,0.586675
4,3,7,41,upper,congRight,0,1,0.532205
4,3,7,42,lower,congLeft,180,1,0.420495
4,3,7,43,lower,congRight,180,1,0.47834
4,3,7,44,blank,congRight,180,1,0.50368
4,3,7,45,blank,congLeft,180,1,0.549955
4,3,7,46,blank,congLeft,0,1,0.620405
4,3,7,47,lower,congLeft,180,1,0.432295
4,3,7,48,blank,incongRight,180,1,0.56274
4,4,0,1,centre,congRight,0,1,0.51074
4,4,0,2,blank,congRight,180,1,0.54884
4,4,0,3,blank,congLeft,0,1,0.4985
4,4,0,4,lower,incongLeft,180,1,0.56211
4,4,0,5,centre,congRight,180,1,0.521655
4,4,0,6,blank,incongRight,0,1,0.74057
4,4,0,7,upper,incongRight,0,1,0.760695
4,4,0,8,blank,congLeft,180,1,0.638855
4,4,0,9,centre,congRight,0,1,0.55453
4,4,0,10,centre,incongRight,180,1,0.54399
4,4,0,11,centre,incongRight,0,0,0.427575
4,4,0,12,lower,congLeft,180,1,0.46247
4,4,0,13,upper,incongLeft,0,1,0.545975
4,4,0,14,centre,congLeft,0,1,0.44891
4,4,0,15,upper,congRight,0,1,0.4617
4,4,0,16,blank,congLeft,180,1,0.628765
4,4,0,17,centre,incongLeft,180,1,0.664125
4,4,0,18,centre,incongRight,180,1,0.73822
4,4,0,19,blank,incongLeft,0,1,0.760305
4,4,0,20,upper,congRight,0,1,0.53603
4,4,0,21,blank,congRight,0,1,0.51671
4,4,0,22,centre,congLeft,0,1,0.498535
4,4,0,23,centre,incongRight,0,1,0.63645
4,4,0,24,blank,incongRight,0,1,0.522225
4,4,0,25,lower,congLeft,180,1,0.41399
4,4,0,26,lower,incongLeft,180,1,0.49676
4,4,0,27,blank,congRight,180,1,0.562655
4,4,0,28,upper,incongRight,0,1,0.4808
4,4,0,29,blank,congLeft,0,1,0.52919
4,4,0,30,blank,incongRight,180,1,0.627135
4,4,0,31,upper,congLeft,0,1,0.366245
4,4,0,32,blank,incongRight,180,1,0.641305
4,4,0,33,blank,incongLeft,180,1,0.67135
4,4,0,34,centre,congLeft,180,1,0.50463
4,4,0,35,upper,incongLeft,0,1,0.478065
4,4,0,36,blank,congRight,0,1,0.57045
4,4,0,37,lower,incongRight,180,1,0.578025
4,4,0,38,upper,congLeft,0,1,0.4298
4,4,0,39,centre,congLeft,180,1,0.56862
4,4,0,40,lower,congRight,180,1,0.47719
4,4,0,41,centre,congRight,180,1,0.41466
4,4,0,42,centre,incongLeft,0,1,0.7248
4,4,0,43,lower,congRight,180,1,0.550645
4,4,0,44,centre,incongLeft,180,1,0.61167
4,4,0,45,blank,incongLeft,0,1,0.628575
4,4,0,46,blank,incongLeft,180,1,0.720915
4,4,0,47,lower,incongRight,180,1,0.705615
4,4,0,48,centre,incongLeft,0,1,0.731235
4,5,4,1,centre,incongRight,180,1,0.611355
4,5,4,2,blank,congRight,0,1,0.64757
4,5,4,3,blank,congLeft,180,1,0.636715
4,5,4,4,lower,incongLeft,180,1,0.646915
4,5,4,5,blank,incongRight,180,1,0.544715
4,5,4,6,centre,incongLeft,180,1,0.653765
4,5,4,7,lower,congRight,180,1,0.500095
4,5,4,8,upper,congRight,0,1,0.534315
4,5,4,9,upper,incongRight,0,1,0.448365
4,5,4,10,centre,incongLeft,0,1,0.64758
4,5,4,11,blank,incongLeft,180,1,0.68097
4,5,4,12,centre,congLeft,0,1,0.53289
4,5,4,13,blank,incongLeft,180,1,0.677095
4,5,4,14,lower,congLeft,180,1,0.49598
4,5,4,15,blank,incongLeft,0,1,0.692945
4,5,4,16,blank,congLeft,0,1,0.551435
4,5,4,17,centre,incongRight,180,1,0.55997
4,5,4,18,blank,incongRight,0,1,0.613375
4,5,4,19,upper,incongLeft,0,1,0.505425
4,5,4,20,upper,congRight,0,1,0.370025
4,5,4,21,upper,congLeft,0,1,0.451915
4,5,4,22,blank,congRight,0,1,0.462995
4,5,4,23,blank,incongLeft,0,1,0.564145
4,5,4,24,centre,congRight,180,1,1.028595
4,5,4,25,centre,incongRight,0,1,0.66075
4,5,4,26,upper,incongRight,0,1,0.46827
4,5,4,27,centre,incongRight,0,1,0.530215
4,5,4,28,centre,congRight,180,1,0.716615
4,5,4,29,lower,incongRight,180,1,0.564815
4,5,4,30,centre,congLeft,180,1,0.540775
4,5,4,31,centre,incongLeft,180,1,0.4788
4,5,4,32,lower,incongLeft,180,1,0.435345
4,5,4,33,blank,incongRight,0,1,0.73909
4,5,4,34,centre,congRight,0,1,0.39978
4,5,4,35,blank,incongRight,180,1,0.719445
4,5,4,36,centre,congLeft,180,1,0.484435
4,5,4,37,blank,congRight,180,1,0.46216
4,5,4,38,lower,congRight,180,1,0.371535
4,5,4,39,centre,incongLeft,0,0,0.429445
4,5,4,40,lower,incongRight,180,1,0.57612
4,5,4,41,lower,congLeft,180,1,0.468125
4,5,4,42,upper,congLeft,0,1,0.43352
4,5,4,43,blank,congLeft,180,1,0.547105
4,5,4,44,upper,incongLeft,0,1,0.59854
4,5,4,45,centre,congLeft,0,1,0.49474
4,5,4,46,blank,congLeft,0,1,0.50199
4,5,4,47,blank,congRight,180,1,0.51796
4,5,4,48,centre,congRight,0,1,0.679055
4,6,7,1,centre,incongRight,180,1,0.657975
4,6,7,2,blank,congLeft,0,1,0.5021
4,6,7,3,centre,incongRight,180,1,0.594145
4,6,7,4,blank,incongRight,0,1,0.638385
4,6,7,5,lower,incongRight,180,1,0.6104
4,6,7,6,lower,incongRight,180,1,0.558035
4,6,7,7,centre,congLeft,0,1,0.48129
4,6,7,8,upper,incongLeft,0,1,0.447705
4,6,7,9,lower,incongLeft,180,1,0.66241
4,6,7,10,lower,congRight,180,1,0.499215
4,6,7,11,centre,congRight,180,1,0.456395
4,6,7,12,upper,incongRight,0,1,0.67708
4,6,7,13,centre,congRight,0,1,0.419055
4,6,7,14,blank,incongRight,180,1,0.81292
4,6,7,15,blank,incongRight,180,1,0.61297
4,6,7,16,blank,incongRight,0,1,0.82897
4,6,7,17,blank,incongLeft,0,1,0.569625
4,6,7,18,lower,congRight,180,1,0.43749
4,6,7,19,centre,incongLeft,0,1,0.647875
4,6,7,20,lower,congLeft,180,1,0.470575
4,6,7,21,centre,congLeft,180,1,0.58145
4,6,7,22,centre,incongRight,0,1,0.639085
4,6,7,23,centre,incongRight,0,1,0.414565
4,6,7,24,centre,incongLeft,180,1,0.540835
4,6,7,25,blank,congRight,180,1,0.503985
4,6,7,26,upper,congRight,0,1,0.406255
4,6,7,27,blank,congRight,180,1,0.62289
4,6,7,28,upper,congLeft,0,1,0.421935
4,6,7,29,centre,congRight,0,1,0.69008
4,6,7,30,upper,congLeft,0,1,0.38607
4,6,7,31,lower,incongLeft,180,1,0.81177
4,6,7,32,upper,congRight,0,1,0.4085
4,6,7,33,blank,congRight,0,1,0.531035
4,6,7,34,centre,incongLeft,180,1,0.611135
4,6,7,35,centre,incongLeft,0,1,0.711085
4,6,7,36,blank,congLeft,0,1,0.579495
4,6,7,37,blank,congLeft,180,1,0.519965
4,6,7,38,blank,incongLeft,180,1,0.63122
4,6,7,39,centre,congRight,180,1,0.590035
4,6,7,40,lower,congLeft,180,1,0.42933
4,6,7,41,centre,congLeft,0,1,0.51445
4,6,7,42,upper,incongLeft,0,1,0.594035
4,6,7,43,blank,congRight,0,1,0.50079
4,6,7,44,blank,incongLeft,0,1,0.59677
4,6,7,45,centre,congLeft,180,1,0.505775
4,6,7,46,blank,incongLeft,180,1,0.59114
4,6,7,47,blank,congLeft,180,1,0.5149
4,6,7,48,upper,incongRight,0,1,0.519345
4,7,4,1,upper,congLeft,0,1,0.500495
4,7,4,2,blank,incongLeft,180,1,0.628515
4,7,4,3,blank,congRight,180,1,0.594905
4,7,4,4,centre,incongLeft,0,1,0.728795
4,7,4,5,blank,congLeft,0,1,0.47802
4,7,4,6,upper,incongLeft,0,1,0.51899
4,7,4,7,lower,incongRight,180,1,1.128255
4,7,4,8,blank,incongRight,0,1,0.89376
4,7,4,9,centre,incongLeft,180,1,0.646415
4,7,4,10,blank,congRight,0,1,0.5183
4,7,4,11,blank,incongLeft,0,1,0.70413
4,7,4,12,upper,congRight,0,1,0.442945
4,7,4,13,upper,incongLeft,0,1,0.56102
4,7,4,14,centre,incongRight,180,1,0.74687
4,7,4,15,blank,congRight,0,1,0.53538
4,7,4,16,centre,congLeft,0,1,0.471165
4,7,4,17,blank,incongRight,180,1,0.633345
4,7,4,18,lower,incongRight,180,1,0.4839
4,7,4,19,lower,congRight,180,1,0.45363
4,7,4,20,lower,incongLeft,180,1,0.501075
4,7,4,21,centre,incongRight,180,1,0.605335
4,7,4,22,centre,congRight,180,1,0.520265
4,7,4,23,blank,incongRight,180,1,0.55755
4,7,4,24,blank,congLeft,180,1,0.571755
4,7,4,25,lower,congRight,180,1,0.396
4,7,4,26,blank,congLeft,0,1,0.66042
4,7,4,27,lower,incongLeft,180,1,0.47766
4,7,4,28,blank,incongLeft,0,1,0.746855
4,7,4,29,centre,congRight,180,1,0.52327
4,7,4,30,centre,incongRight,0,1,0.561255
4,7,4,31,centre,incongLeft,0,1,0.6628
4,7,4,32,blank,congLeft,180,1,0.579835
4,7,4,33,upper,incongRight,0,1,0.47183
4,7,4,34,lower,congLeft,180,1,0.55232
4,7,4,35,centre,congRight,0,1,0.48602
4,7,4,36,centre,incongLeft,180,1,0.70243
4,7,4,37,blank,incongLeft,180,1,0.66593
4,7,4,38,upper,incongRight,0,1,0.561245
4,7,4,39,upper,congLeft,0,1,0.530245
4,7,4,40,centre,incongRight,0,1,0.52911
4,7,4,41,centre,congLeft,180,1,0.54663
4,7,4,42,centre,congLeft,0,1,0.45347
4,7,4,43,blank,incongRight,0,1,0.57732
4,7,4,44,lower,congLeft,180,1,0.436495
4,7,4,45,upper,congRight,0,1,0.35113
4,7,4,46,centre,congLeft,180,1,0.482675
4,7,4,47,centre,congRight,0,1,0.377045
4,7,4,48,blank,congRight,180,1,0.55932
4,8,0,1,upper,congLeft,0,1,0.499535
4,8,0,2,blank,congLeft,0,1,0.504565
4,8,0,3,upper,incongLeft,0,1,0.66096
4,8,0,4,centre,congRight,0,1,0.562535
4,8,0,5,blank,congRight,180,1,0.776665
4,8,0,6,lower,incongRight,180,1,0.61175
4,8,0,7,blank,congRight,0,1,0.610775
4,8,0,8,lower,incongLeft,180,1,0.60163
4,8,0,9,lower,congLeft,180,1,0.499645
4,8,0,10,blank,congLeft,0,1,0.72166
4,8,0,11,upper,congRight,0,1,0.501275
4,8,0,12,centre,congLeft,180,1,0.712435
4,8,0,13,centre,congLeft,0,1,0.645485
4,8,0,14,centre,congRight,180,1,0.58031
4,8,0,15,blank,incongLeft,0,1,0.744355
4,8,0,16,blank,incongLeft,180,1,0.653925
4,8,0,17,upper,incongRight,0,1,0.54671
4,8,0,18,lower,congRight,180,1,0.50494
4,8,0,19,upper,congLeft,0,1,0.61488
4,8,0,20,lower,congRight,180,1,0.46918
4,8,0,21,blank,congRight,0,1,0.55687
4,8,0,22,upper,incongLeft,0,1,0.53419
4,8,0,23,centre,incongRight,180,1,0.584675
4,8,0,24,blank,congLeft,180,1,0.60682
4,8,0,25,blank,incongRight,0,1,0.651595
4,8,0,26,centre,incongRight,180,1,0.57082
4,8,0,27,blank,congLeft,180,1,0.522225
4,8,0,28,blank,incongLeft,180,1,0.590415
4,8,0,29,blank,congRight,180,1,0.510415
4,8,0,30,centre,incongRight,0,0,0.4495
4,8,0,31,centre,incongRight,0,1,0.639115
4,8,0,32,centre,congLeft,180,1,0.667935
4,8,0,33,centre,congRight,0,1,0.50321
4,8,0,34,upper,congRight,0,1,0.40174
4,8,0,35,centre,congRight,180,1,0.589095
4,8,0,36,blank,incongRight,180,1,0.7705
4,8,0,37,centre,incongLeft,0,1,0.760455
4,8,0,38,centre,incongLeft,180,1,0.6953
4,8,0,39,upper,incongRight,0,1,0.52196
4,8,0,40,centre,incongLeft,180,1,0.84901
4,8,0,41,blank,incongRight,0,1,0.546765
4,8,0,42,lower,incongRight,180,1,0.5789
4,8,0,43,lower,congLeft,180,1,0.530575
4,8,0,44,lower,incongLeft,180,1,0.554035
4,8,0,45,centre,incongLeft,0,0,0.700905
4,8,0,46,blank,incongRight,180,1,1.276475
4,8,0,47,blank,incongLeft,0,1,0.760345
4,8,0,48,centre,congLeft,0,1,0.622455
4,9,7,1,blank,congRight,0,1,0.574
4,9,7,2,lower,incongRight,180,1,0.71163
4,9,7,3,blank,congRight,180,1,0.60068
4,9,7,4,centre,congLeft,180,1,0.516845
4,9,7,5,centre,incongRight,0,1,0.63484
4,9,7,6,blank,incongLeft,180,1,0.583145
4,9,7,7,lower,congRight,180,1,0.500965
4,9,7,8,lower,congLeft,180,1,0.416985
4,9,7,9,blank,incongLeft,180,1,0.58384
4,9,7,10,upper,congLeft,0,1,0.42156
4,9,7,11,blank,congRight,0,1,0.60015
4,9,7,12,centre,incongRight,180,1,0.650395
4,9,7,13,blank,congLeft,0,1,0.550505
4,9,7,14,centre,congRight,0,1,0.404615
4,9,7,15,centre,incongRight,0,1,0.66819
4,9,7,16,centre,incongLeft,0,1,0.73535
4,9,7,17,upper,incongLeft,0,1,0.45687
4,9,7,18,centre,congRight,180,1,0.517685
4,9,7,19,blank,incongRight,0,1,0.634475
4,9,7,20,upper,congRight,0,1,0.384765
4,9,7,21,upper,incongRight,0,1,0.467355
4,9,7,22,centre,congRight,0,1,0.451425
4,9,7,23,blank,congLeft,180,1,0.56716
4,9,7,24,blank,incongLeft,0,1,0.63396
4,9,7,25,lower,incongRight,180,1,0.62298
4,9,7,26,lower,congRight,180,1,0.42764
4,9,7,27,centre,congRight,180,1,0.56709
4,9,7,28,upper,congLeft,0,1,0.44003
4,9,7,29,blank,incongRight,0,1,0.622405
4,9,7,30,centre,congLeft,0,1,0.54284
4,9,7,31,centre,congLeft,180,1,0.53478
4,9,7,32,blank,congLeft,0,1,0.51751
4,9,7,33,centre,incongLeft,180,1,0.620895
4,9,7,34,blank,incongLeft,0,1,0.667195
4,9,7,35,centre,incongLeft,0,1,0.59339
4,9,7,36,blank,incongRight,180,1,0.767395
4,9,7,37,blank,congRight,180,1,0.567065
4,9,7,38,upper,congRight,0,1,0.390345
4,9,7,39,centre,incongRight,180,1,0.76624
4,9,7,40,lower,incongLeft,180,1,0.56852
4,9,7,41,centre,incongLeft,180,1,0.53462
4,9,7,42,upper,incongRight,0,1,0.62041
4,9,7,43,lower,incongLeft,180,1,0.50312
4,9,7,44,centre,congLeft,0,1,0.539365
4,9,7,45,upper,incongLeft,0,1,0.686795
4,9,7,46,lower,congLeft,180,1,0.435825
4,9,7,47,blank,incongRight,180,1,0.801515
4,9,7,48,blank,congLeft,180,1,0.641285
5,1,0,1,upper,incongLeft,0,1,0.54724
5,1,0,2,blank,incongRight,180,1,0.736705
5,1,0,3,upper,congRight,0,1,0.48152
5,1,0,4,blank,congLeft,180,1,0.705455
5,1,0,5,centre,congRight,0,1,0.51346
5,1,0,6,centre,congRight,180,1,0.51945
5,1,0,7,lower,congRight,180,1,0.4693
5,1,0,8,centre,incongLeft,180,1,0.58274
5,1,0,9,lower,incongLeft,180,1,0.55834
5,1,0,10,centre,incongRight,180,1,0.604605
5,1,0,11,blank,incongLeft,0,1,0.638695
5,1,0,12,blank,congRight,0,1,0.622305
5,1,0,13,centre,incongRight,0,1,0.62544
5,1,0,14,centre,congLeft,180,1,0.458375
5,1,0,15,centre,congLeft,0,1,0.524155
5,1,0,16,lower,incongRight,180,1,0.480625
5,1,0,17,blank,incongRight,0,1,0.716465
5,1,0,18,centre,congRight,180,1,0.602885
5,1,0,19,centre,incongRight,0,1,0.705215
5,1,0,20,centre,congRight,0,1,0.54154
5,1,0,21,lower,congLeft,180,1,0.422475
5,1,0,22,upper,incongRight,0,1,0.738655
5,1,0,23,lower,congLeft,180,1,0.36879
5,1,0,24,blank,incongRight,0,1,0.58112
5,1,0,25,blank,incongLeft,180,1,0.54375
5,1,0,26,centre,incongLeft,180,1,0.581335
5,1,0,27,blank,congRight,180,1,0.871705
5,1,0,28,centre,congLeft,180,1,0.6093
5,1,0,29,blank,incongRight,180,1,0.633125
5,1,0,30,upper,congLeft,0,1,0.55055
5,1,0,31,upper,congRight,0,1,0.39779
5,1,0,32,centre,congLeft,0,1,0.542285
5,1,0,33,blank,incongLeft,180,1,0.78063
5,1,0,34,blank,congRight,0,1,0.686235
5,1,0,35,upper,incongRight,0,1,0.49753
5,1,0,36,blank,incongLeft,0,1,0.824125
5,1,0,37,upper,congLeft,0,1,0.49274
5,1,0,38,lower,congRight,180,1,0.638505
5,1,0,39,centre,incongLeft,0,1,1.00812
5,1,0,40,blank,congRight,180,1,0.926375
5,1,0,41,lower,incongRight,180,1,0.62753
5,1,0,42,blank,congLeft,180,1,0.652835
5,1,0,43,centre,incongRight,180,1,0.687955
5,1,0,44,upper,incongLeft,0,1,0.497435
5,1,0,45,lower,incongLeft,180,1,0.63795
5,1,0,46,centre,incongLeft,0,1,0.699475
5,1,0,47,blank,congLeft,0,1,0.69663
5,1,0,48,blank,congLeft,0,1,0.60039
5,2,4,1,blank,incongLeft,0,1,0.772115
5,2,4,2,blank,congLeft,0,1,0.600425
5,2,4,3,lower,incongLeft,180,1,0.564015
5,2,4,4,upper,incongRight,0,1,0.56727
5,2,4,5,centre,congRight,0,1,0.53824
5,2,4,6,centre,congLeft,180,1,0.592475
5,2,4,7,centre,incongLeft,180,1,0.726435
5,2,4,8,blank,incongRight,0,1,0.622795
5,2,4,9,upper,incongLeft,0,1,0.59369
5,2,4,10,blank,congRight,180,0,NaN
5,2,4,11,centre,congLeft,0,1,0.59475
5,2,4,12,lower,congLeft,180,1,0.434365
5,2,4,13,centre,incongRight,180,1,0.67506
5,2,4,14,lower,congRight,180,1,0.546055
5,2,4,15,blank,incongLeft,180,1,0.633635
5,2,4,16,centre,congRight,180,1,0.585685
5,2,4,17,centre,incongRight,180,1,0.72013
5,2,4,18,centre,incongLeft,180,1,0.659425
5,2,4,19,centre,incongRight,0,1,0.64093
5,2,4,20,blank,congLeft,180,1,0.6175
5,2,4,21,blank,incongRight,180,1,0.696505
5,2,4,22,upper,congRight,0,1,0.46235
5,2,4,23,lower,congLeft,180,1,0.4771
5,2,4,24,blank,congRight,0,1,0.602495
5,2,4,25,blank,incongRight,180,0,NaN
5,2,4,26,blank,congRight,180,1,0.631255
5,2,4,27,blank,incongLeft,0,1,0.69381
5,2,4,28,lower,congRight,180,1,0.484815
5,2,4,29,upper,congLeft,0,1,0.53021
5,2,4,30,blank,incongRight,0,1,0.77099
5,2,4,31,centre,incongLeft,0,1,0.834105
5,2,4,32,blank,congRight,0,1,0.543305
5,2,4,33,blank,congLeft,0,1,0.69216
5,2,4,34,centre,incongLeft,0,1,0.826555
5,2,4,35,upper,congRight,0,1,0.46367
5,2,4,36,lower,incongLeft,180,1,0.56739
5,2,4,37,upper,incongRight,0,1,0.53873
5,2,4,38,centre,congRight,180,1,0.55073
5,2,4,39,centre,congLeft,180,1,0.505295
5,2,4,40,lower,incongRight,180,1,0.547915
5,2,4,41,blank,incongLeft,180,1,0.70076
5,2,4,42,lower,incongRight,180,1,0.72512
5,2,4,43,upper,incongLeft,0,1,0.62636
5,2,4,44,centre,congLeft,0,1,0.71727
5,2,4,45,blank,congLeft,180,1,0.55946
5,2,4,46,centre,incongRight,0,1,0.734025
5,2,4,47,upper,congLeft,0,1,0.54139
5,2,4,48,centre,congRight,0,1,0.5173
5,3,7,1,blank,congRight,180,1,0.61747
5,3,7,2,upper,congLeft,0,1,0.483435
5,3,7,3,centre,congLeft,0,1,0.501605
5,3,7,4,centre,congRight,0,1,0.52237
5,3,7,5,lower,congRight,180,1,0.467135
5,3,7,6,blank,incongRight,0,1,0.72288
5,3,7,7,upper,incongLeft,0,1,0.80869
5,3,7,8,lower,congLeft,180,1,0.400885
5,3,7,9,upper,congRight,0,1,0.451285
5,3,7,10,centre,congRight,180,1,0.55044
5,3,7,11,lower,incongLeft,180,1,0.517195
5,3,7,12,lower,incongLeft,180,1,0.311135
5,3,7,13,blank,congRight,0,1,0.48311
5,3,7,14,blank,incongLeft,180,1,0.550515
5,3,7,15,centre,incongLeft,180,1,0.56753
5,3,7,16,upper,incongRight,0,1,0.509525
5,3,7,17,upper,congLeft,0,1,0.507235
5,3,7,18,centre,incongLeft,0,1,0.75502
5,3,7,19,upper,incongRight,0,1,0.50017
5,3,7,20,centre,congRight,0,1,0.397155
5,3,7,21,blank,congLeft,180,1,0.59561
5,3,7,22,upper,incongLeft,0,1,0.50938
5,3,7,23,blank,congRight,0,1,0.54181
5,3,7,24,centre,incongRight,0,1,0.60019
5,3,7,25,blank,incongLeft,0,1,0.71223
5,3,7,26,centre,congLeft,180,1,0.502895
5,3,7,27,blank,congLeft,0,1,0.58935
5,3,7,28,centre,incongRight,0,1,0.6215
5,3,7,29,blank,incongRight,0,1,0.547085
5,3,7,30,centre,incongLeft,180,1,0.67486
5,3,7,31,blank,incongRight,180,1,0.816645
5,3,7,32,centre,incongRight,180,1,0.650695
5,3,7,33,centre,congLeft,0,1,0.60659
5,3,7,34,centre,incongLeft,0,1,0.645145
5,3,7,35,centre,incongRight,180,1,0.673765
5,3,7,36,lower,incongRight,180,1,0.590195
5,3,7,37,blank,incongLeft,0,1,0.667885
5,3,7,38,lower,congLeft,180,1,0.620605
5,3,7,39,blank,congRight,180,1,0.51978
5,3,7,40,blank,incongLeft,180,1,0.647445
5,3,7,41,centre,congLeft,180,1,0.594795
5,3,7,42,blank,congLeft,0,1,0.81743
5,3,7,43,lower,incongRight,180,1,0.55486
5,3,7,44,lower,congRight,180,1,0.613945
5,3,7,45,upper,congRight,0,1,0.47426
5,3,7,46,blank,congLeft,180,1,0.553385
5,3,7,47,centre,congRight,180,1,0.55012
5,3,7,48,blank,incongRight,180,1,0.656645
5,4,4,1,upper,congLeft,0,1,0.53409
5,4,4,2,centre,congRight,0,1,0.64552
5,4,4,3,centre,incongRight,180,1,0.67245
5,4,4,4,upper,incongLeft,0,1,0.45076
5,4,4,5,centre,incongLeft,0,1,0.64345
5,4,4,6,centre,congRight,0,1,0.66758
5,4,4,7,centre,congLeft,0,1,0.483935
5,4,4,8,blank,incongLeft,180,1,0.686535
5,4,4,9,blank,incongLeft,0,1,0.65841
5,4,4,10,lower,congLeft,180,1,0.550735
5,4,4,11,lower,incongLeft,180,1,0.58359
5,4,4,12,lower,congRight,180,1,0.43398
5,4,4,13,lower,congRight,180,1,0.389335
5,4,4,14,lower,incongRight,180,1,0.489675
5,4,4,15,blank,incongLeft,0,1,0.750285
5,4,4,16,lower,congLeft,180,1,0.52171
5,4,4,17,centre,congLeft,180,1,0.472085
5,4,4,18,centre,congRight,180,1,0.56697
5,4,4,19,lower,incongRight,180,1,0.52331
5,4,4,20,blank,incongRight,0,1,0.6675
5,4,4,21,centre,incongLeft,0,1,0.737615
5,4,4,22,upper,incongRight,0,1,0.53411
5,4,4,23,lower,incongLeft,180,1,0.567605
5,4,4,24,blank,incongRight,0,1,0.606555
5,4,4,25,blank,congRight,180,1,0.55085
5,4,4,26,upper,congRight,0,1,0.391015
5,4,4,27,blank,congRight,0,1,0.567205
5,4,4,28,blank,congRight,180,1,0.513475
5,4,4,29,blank,congLeft,180,1,0.716765
5,4,4,30,centre,congLeft,0,1,0.50055
5,4,4,31,centre,congLeft,180,1,0.48839
5,4,4,32,blank,congLeft,0,1,0.53433
5,4,4,33,centre,incongRight,0,1,0.833605
5,4,4,34,centre,incongLeft,180,1,0.63043
5,4,4,35,centre,incongLeft,180,1,0.58376
5,4,4,36,upper,congRight,0,1,0.419735
5,4,4,37,upper,incongRight,0,1,0.48449
5,4,4,38,blank,incongRight,180,1,0.802715
5,4,4,39,blank,incongLeft,180,1,0.638945
5,4,4,40,centre,incongRight,180,1,0.70156
5,4,4,41,centre,congRight,180,1,0.500905
5,4,4,42,blank,incongRight,180,1,0.66772
5,4,4,43,centre,incongRight,0,1,0.75481
5,4,4,44,blank,congLeft,0,1,0.59008
5,4,4,45,blank,congLeft,180,1,0.620015
5,4,4,46,upper,congLeft,0,1,0.9352
5,4,4,47,upper,incongLeft,0,1,0.4844
5,4,4,48,blank,congRight,0,1,0.500565
5,5,4,1,blank,congLeft,0,1,0.50079
5,5,4,2,centre,incongRight,180,1,0.66401
5,5,4,3,blank,incongRight,0,1,0.699365
5,5,4,4,blank,congLeft,180,1,0.517685
5,5,4,5,blank,congRight,0,1,0.53411
5,5,4,6,upper,incongRight,0,1,0.462515
5,5,4,7,centre,incongRight,0,1,0.40107
5,5,4,8,upper,incongLeft,0,1,0.56673
5,5,4,9,blank,congRight,180,1,0.61762
5,5,4,10,blank,incongLeft,180,1,0.683855
5,5,4,11,blank,incongRight,0,1,0.672985
5,5,4,12,upper,incongLeft,0,1,0.55781
5,5,4,13,lower,congLeft,180,1,0.38463
5,5,4,14,centre,incongLeft,180,1,0.60515
5,5,4,15,centre,incongLeft,0,1,0.71721
5,5,4,16,lower,incongLeft,180,1,0.533945
5,5,4,17,centre,congRight,180,1,0.55073
5,5,4,18,centre,incongRight,180,1,0.57929
5,5,4,19,blank,incongLeft,0,1,0.63445
5,5,4,20,centre,congRight,0,1,0.65045
5,5,4,21,centre,incongLeft,0,1,0.659815
5,5,4,22,centre,incongRight,0,1,0.612435
5,5,4,23,centre,congRight,180,1,0.53372
5,5,4,24,upper,congLeft,0,1,0.436475
5,5,4,25,lower,incongLeft,180,1,0.500015
5,5,4,26,blank,congRight,180,1,0.60311
5,5,4,27,centre,congLeft,180,1,0.507795
5,5,4,28,upper,congRight,0,1,0.370715
5,5,4,29,blank,congLeft,0,1,0.6012
5,5,4,30,blank,congRight,0,1,0.550945
5,5,4,31,centre,congLeft,180,1,0.684195
5,5,4,32,upper,congLeft,0,1,0.43892
5,5,4,33,upper,incongRight,0,1,0.599235
5,5,4,34,blank,incongRight,180,1,0.675005
5,5,4,35,centre,congLeft,0,1,0.45089
5,5,4,36,lower,incongRight,180,1,0.450025
5,5,4,37,lower,congLeft,180,1,0.467255
5,5,4,38,centre,congRight,0,1,0.48401
5,5,4,39,blank,incongRight,180,1,0.719705
5,5,4,40,lower,congRight,180,1,0.450815
5,5,4,41,lower,congRight,180,1,0.45742
5,5,4,42,centre,incongLeft,180,1,0.705305
5,5,4,43,blank,incongLeft,180,1,0.52684
5,5,4,44,upper,congRight,0,1,0.477775
5,5,4,45,blank,congLeft,180,1,0.470695
5,5,4,46,lower,incongRight,180,1,0.55027
5,5,4,47,centre,congLeft,0,1,0.458185
5,5,4,48,blank,incongLeft,0,1,0.685585
5,6,7,1,centre,congLeft,0,1,0.433675
5,6,7,2,blank,incongLeft,0,0,0.517005
5,6,7,3,blank,incongRight,180,1,0.68365
5,6,7,4,blank,congRight,180,1,0.584275
5,6,7,5,blank,congLeft,0,1,0.567845
5,6,7,6,upper,incongRight,0,1,0.634335
5,6,7,7,blank,congRight,0,1,0.610235
5,6,7,8,centre,congLeft,180,1,0.50083
5,6,7,9,blank,congRight,180,1,0.535315
5,6,7,10,upper,congLeft,0,1,0.46786
5,6,7,11,blank,incongRight,180,1,0.73413
5,6,7,12,upper,congRight,0,1,0.44789
5,6,7,13,blank,congLeft,180,1,0.66723
5,6,7,14,centre,congRight,180,1,0.48679
5,6,7,15,lower,incongRight,180,1,0.52466
5,6,7,16,blank,incongLeft,0,1,0.76941
5,6,7,17,upper,incongRight,0,1,0.561735
5,6,7,18,blank,incongLeft,180,1,0.70146
5,6,7,19,blank,congRight,0,1,0.62529
5,6,7,20,lower,congLeft,180,1,0.48437
5,6,7,21,centre,incongLeft,0,1,0.61722
5,6,7,22,centre,incongRight,0,1,0.71785
5,6,7,23,upper,congLeft,0,1,0.517215
5,6,7,24,lower,incongLeft,180,1,0.521995
5,6,7,25,lower,congLeft,180,1,0.64295
5,6,7,26,centre,congLeft,180,1,0.584875
5,6,7,27,blank,congLeft,0,1,0.65856
5,6,7,28,lower,incongRight,180,1,0.83399
5,6,7,29,upper,incongLeft,0,1,0.54534
5,6,7,30,blank,incongRight,0,1,0.734165
5,6,7,31,lower,congRight,180,1,0.50077
5,6,7,32,lower,congRight,180,1,0.469645
5,6,7,33,centre,congRight,0,1,0.45321
5,6,7,34,lower,incongLeft,180,1,0.570365
5,6,7,35,upper,incongLeft,0,1,0.56379
5,6,7,36,centre,incongLeft,0,1,0.593505
5,6,7,37,centre,congRight,180,1,0.6501
5,6,7,38,centre,congRight,0,1,0.51103
5,6,7,39,blank,incongRight,0,1,0.89224
5,6,7,40,centre,incongLeft,180,1,0.734165
5,6,7,41,upper,congRight,0,1,0.357775
5,6,7,42,blank,congLeft,180,1,0.500925
5,6,7,43,blank,incongLeft,180,1,0.59615
5,6,7,44,centre,incongRight,180,1,0.75628
5,6,7,45,centre,incongLeft,180,1,0.750665
5,6,7,46,centre,incongRight,180,1,0.6839
5,6,7,47,centre,incongRight,0,1,0.76731
5,6,7,48,centre,congLeft,0,1,0.53413
5,7,0,1,blank,congRight,0,1,0.5648
5,7,0,2,upper,incongLeft,0,1,0.592435
5,7,0,3,upper,congLeft,0,1,0.45528
5,7,0,4,centre,congRight,0,1,0.61711
5,7,0,5,lower,incongLeft,180,1,0.567505
5,7,0,6,blank,incongRight,180,1,0.80023
5,7,0,7,centre,incongLeft,180,1,0.696205
5,7,0,8,centre,incongRight,0,1,0.703405
5,7,0,9,blank,congRight,0,1,0.59058
5,7,0,10,blank,congLeft,180,1,0.60741
5,7,0,11,upper,incongLeft,0,1,0.91911
5,7,0,12,centre,congLeft,0,1,0.50574
5,7,0,13,centre,congRight,0,1,0.45
5,7,0,14,lower,congLeft,180,1,0.405295
5,7,0,15,centre,congRight,180,1,0.50027
5,7,0,16,centre,congLeft,0,1,0.479405
5,7,0,17,centre,incongRight,180,1,0.73442
5,7,0,18,blank,incongLeft,0,1,0.76952
5,7,0,19,centre,incongLeft,0,1,0.717335
5,7,0,20,lower,incongRight,180,1,0.554225
5,7,0,21,centre,incongRight,180,1,0.540695
5,7,0,22,centre,incongRight,0,1,0.679505
5,7,0,23,lower,incongRight,180,1,0.53879
5,7,0,24,upper,congLeft,0,1,0.513325
5,7,0,25,blank,congRight,180,1,0.56893
5,7,0,26,blank,incongRight,0,1,0.67806
5,7,0,27,centre,incongLeft,0,1,0.817645
5,7,0,28,blank,incongRight,180,1,0.96733
5,7,0,29,blank,congRight,180,1,0.553905
5,7,0,30,blank,incongLeft,0,1,0.629675
5,7,0,31,upper,incongRight,0,1,0.567555
5,7,0,32,lower,incongLeft,180,1,0.518465
5,7,0,33,blank,incongRight,0,1,0.550435
5,7,0,34,blank,incongLeft,180,1,0.634035
5,7,0,35,blank,congLeft,180,1,0.6175
5,7,0,36,centre,incongLeft,180,1,0.70082
5,7,0,37,blank,incongLeft,180,1,0.7009
5,7,0,38,blank,congLeft,0,1,0.74668
5,7,0,39,centre,congLeft,180,1,0.4755
5,7,0,40,blank,congLeft,0,1,0.54196
5,7,0,41,lower,congLeft,180,1,0.41681
5,7,0,42,lower,congRight,180,1,0.476565
5,7,0,43,lower,congRight,180,1,0.400915
5,7,0,44,centre,congLeft,180,1,0.55307
5,7,0,45,centre,congRight,180,1,0.51043
5,7,0,46,upper,incongRight,0,1,0.552175
5,7,0,47,upper,congRight,0,1,0.38992
5,7,0,48,upper,congRight,0,1,0.35683
5,8,7,1,blank,congLeft,180,1,0.534195
5,8,7,2,centre,incongLeft,0,1,0.784345
5,8,7,3,blank,congRight,0,1,0.54438
5,8,7,4,lower,congLeft,180,1,0.50156
5,8,7,5,blank,incongRight,180,1,0.85145
5,8,7,6,lower,incongRight,180,1,0.52588
5,8,7,7,centre,incongRight,0,1,0.618345
5,8,7,8,upper,congLeft,0,1,0.47006
5,8,7,9,blank,incongLeft,180,1,0.668555
5,8,7,10,lower,congRight,180,1,0.451095
5,8,7,11,centre,congRight,0,1,0.880205
5,8,7,12,centre,incongRight,0,1,0.62925
5,8,7,13,lower,incongRight,180,1,0.56778
5,8,7,14,lower,congRight,180,1,0.460865
5,8,7,15,centre,congLeft,0,1,0.4775
5,8,7,16,centre,incongRight,180,1,1.405825
5,8,7,17,blank,incongLeft,180,1,0.68421
5,8,7,18,upper,congRight,0,1,0.467285
5,8,7,19,centre,congRight,0,1,0.484705
5,8,7,20,upper,congLeft,0,1,0.500415
5,8,7,21,blank,incongRight,0,1,0.592915
5,8,7,22,centre,incongLeft,0,1,0.717395
5,8,7,23,blank,congRight,180,1,0.50085
5,8,7,24,centre,incongRight,180,1,0.669535
5,8,7,25,upper,incongRight,0,1,0.51363
5,8,7,26,upper,incongLeft,0,1,0.55734
5,8,7,27,upper,congRight,0,1,0.43979
5,8,7,28,blank,congRight,180,1,0.583825
5,8,7,29,lower,congLeft,180,1,0.48438
5,8,7,30,blank,incongRight,180,1,0.733875
5,8,7,31,centre,congLeft,180,1,0.484005
5,8,7,32,blank,incongLeft,0,1,0.777725
5,8,7,33,lower,incongLeft,180,1,0.535925
5,8,7,34,blank,incongRight,0,1,0.634275
5,8,7,35,blank,congRight,0,1,0.62503
5,8,7,36,upper,incongRight,0,1,0.517635
5,8,7,37,centre,congLeft,180,1,0.550805
5,8,7,38,upper,incongLeft,0,0,NaN
5,8,7,39,centre,congLeft,0,1,0.503885
5,8,7,40,blank,congLeft,0,1,0.47024
5,8,7,41,lower,incongLeft,180,1,0.5339
5,8,7,42,centre,congRight,180,1,0.466975
5,8,7,43,blank,congLeft,180,1,0.48501
5,8,7,44,centre,incongLeft,180,1,0.667505
5,8,7,45,centre,incongLeft,180,1,0.540685
5,8,7,46,blank,incongLeft,0,1,0.82237
5,8,7,47,blank,congLeft,0,1,0.69637
5,8,7,48,centre,congRight,180,1,0.52727
5,9,0,1,centre,congRight,0,1,0.51044
5,9,0,2,centre,incongLeft,180,1,0.653245
5,9,0,3,upper,congRight,0,1,0.45538
5,9,0,4,blank,congRight,180,1,0.559715
5,9,0,5,centre,incongRight,0,1,0.63443
5,9,0,6,centre,congLeft,180,1,0.47579
5,9,0,7,blank,incongLeft,180,1,0.58427
5,9,0,8,blank,congLeft,180,1,0.43399
5,9,0,9,blank,incongLeft,180,1,0.528445
5,9,0,10,blank,congLeft,0,1,0.55013
5,9,0,11,centre,congRight,180,1,0.5006
5,9,0,12,blank,congLeft,180,1,0.49126
5,9,0,13,lower,congRight,180,1,0.43884
5,9,0,14,lower,congRight,180,1,0.4173
5,9,0,15,blank,incongLeft,0,1,0.753865
5,9,0,16,blank,incongRight,180,1,0.66799
5,9,0,17,blank,incongRight,0,1,0.667015
5,9,0,18,upper,congRight,0,1,0.377355
5,9,0,19,lower,incongRight,180,1,0.484265
5,9,0,20,blank,congRight,0,1,0.500565
5,9,0,21,centre,congRight,0,1,0.48983
5,9,0,22,centre,congLeft,0,1,0.534235
5,9,0,23,centre,incongRight,180,1,0.812515
5,9,0,24,centre,incongLeft,0,1,0.66744
5,9,0,25,centre,congLeft,0,1,0.551005
5,9,0,26,blank,congRight,0,1,0.636285
5,9,0,27,upper,incongLeft,0,1,0.522005
5,9,0,28,upper,congLeft,0,1,0.451255
5,9,0,29,upper,incongRight,0,1,0.53332
5,9,0,30,upper,incongRight,0,1,0.483275
5,9,0,31,centre,incongLeft,180,1,0.717825
5,9,0,32,centre,incongRight,0,1,0.634255
5,9,0,33,centre,incongRight,180,1,0.72396
5,9,0,34,lower,congLeft,180,1,0.47159
5,9,0,35,upper,incongLeft,0,1,0.517095
5,9,0,36,blank,incongRight,180,1,0.57723
5,9,0,37,blank,incongRight,0,1,0.634415
5,9,0,38,lower,congLeft,180,1,0.401165
5,9,0,39,centre,congRight,180,1,0.53368
5,9,0,40,blank,congRight,180,1,0.581115
5,9,0,41,lower,incongLeft,180,1,0.576445
5,9,0,42,blank,congLeft,0,1,0.5516
5,9,0,43,centre,incongLeft,0,1,0.63816
5,9,0,44,centre,congLeft,180,1,0.46754
5,9,0,45,blank,incongLeft,0,1,0.650505
5,9,0,46,lower,incongLeft,180,1,0.48406
5,9,0,47,lower,incongRight,180,1,0.500875
5,9,0,48,upper,congLeft,0,1,0.38432
6,1,0,1,blank,congLeft,180,1,0.448635
6,1,0,2,blank,incongLeft,180,1,0.5705
6,1,0,3,upper,congLeft,0,1,0.363085
6,1,0,4,blank,congRight,0,1,0.438695
6,1,0,5,centre,congRight,180,1,0.38932
6,1,0,6,upper,congRight,0,1,0.32486
6,1,0,7,centre,congLeft,0,1,0.39665
6,1,0,8,lower,incongLeft,180,1,0.550245
6,1,0,9,upper,congLeft,0,1,0.3391
6,1,0,10,centre,congLeft,180,1,0.36318
6,1,0,11,centre,incongRight,180,1,0.562845
6,1,0,12,blank,congRight,180,1,0.54076
6,1,0,13,blank,incongLeft,0,1,0.517285
6,1,0,14,centre,congRight,0,1,0.397105
6,1,0,15,centre,congLeft,180,1,0.413305
6,1,0,16,blank,incongRight,0,0,0.397575
6,1,0,17,blank,congLeft,180,1,0.402295
6,1,0,18,blank,congRight,180,1,0.45134
6,1,0,19,centre,congRight,180,1,0.43725
6,1,0,20,lower,incongRight,180,1,0.46307
6,1,0,21,blank,incongRight,180,1,0.597005
6,1,0,22,blank,congRight,0,1,0.40546
6,1,0,23,upper,incongLeft,0,1,0.396195
6,1,0,24,lower,congRight,180,1,0.341325
6,1,0,25,blank,incongRight,180,0,0.355345
6,1,0,26,lower,incongRight,180,1,0.41273
6,1,0,27,lower,congRight,180,1,0.33506
6,1,0,28,centre,incongLeft,0,1,0.474445
6,1,0,29,lower,congLeft,180,1,0.4623
6,1,0,30,upper,incongRight,0,1,0.44658
6,1,0,31,lower,congLeft,180,1,0.37275
6,1,0,32,centre,incongLeft,180,1,0.522265
6,1,0,33,upper,incongLeft,0,1,0.42489
6,1,0,34,centre,congRight,0,1,0.48265
6,1,0,35,lower,incongLeft,180,1,0.463425
6,1,0,36,blank,congLeft,0,1,0.49913
6,1,0,37,blank,incongRight,0,1,0.596325
6,1,0,38,centre,incongLeft,0,1,0.479725
6,1,0,39,upper,congRight,0,1,0.329555
6,1,0,40,centre,congLeft,0,1,0.41314
6,1,0,41,centre,incongRight,0,1,0.449385
6,1,0,42,centre,incongRight,180,1,0.624135
6,1,0,43,blank,incongLeft,180,1,0.57795
6,1,0,44,centre,incongLeft,180,1,0.531445
6,1,0,45,blank,incongLeft,0,1,0.72973
6,1,0,46,blank,congLeft,0,1,0.440815
6,1,0,47,upper,incongRight,0,1,0.426475
6,1,0,48,centre,incongRight,0,1,0.46349
6,2,4,1,lower,incongRight,180,1,0.421975
6,2,4,2,lower,incongLeft,180,1,0.42266
6,2,4,3,blank,congLeft,180,1,0.38751
6,2,4,4,blank,congRight,0,1,0.45636
6,2,4,5,lower,congRight,180,1,0.334355
6,2,4,6,upper,congRight,0,1,0.351285
6,2,4,7,centre,congLeft,180,1,0.377485
6,2,4,8,blank,incongRight,180,1,0.45126
6,2,4,9,centre,congRight,0,1,0.378245
6,2,4,10,upper,incongLeft,0,1,0.368095
6,2,4,11,upper,congRight,0,1,0.33477
6,2,4,12,centre,incongRight,0,1,0.466915
6,2,4,13,centre,incongLeft,0,1,0.609835
6,2,4,14,blank,incongRight,180,1,0.55814
6,2,4,15,upper,incongRight,0,1,0.41144
6,2,4,16,blank,incongRight,0,1,0.555345
6,2,4,17,centre,congRight,0,1,0.37574
6,2,4,18,upper,congLeft,0,1,0.334505
6,2,4,19,centre,incongLeft,0,1,0.46931
6,2,4,20,lower,congRight,180,1,0.37207
6,2,4,21,centre,incongRight,180,1,0.484685
6,2,4,22,upper,incongLeft,0,1,0.384215
6,2,4,23,centre,incongRight,180,1,0.517515
6,2,4,24,centre,congLeft,0,1,0.417455
6,2,4,25,blank,incongLeft,0,1,0.48702
6,2,4,26,lower,incongLeft,180,1,0.4177
6,2,4,27,blank,congRight,0,1,0.45803
6,2,4,28,centre,incongLeft,180,1,0.53449
6,2,4,29,centre,congLeft,0,1,0.437685
6,2,4,30,blank,incongLeft,180,1,0.59456
6,2,4,31,blank,incongRight,0,1,0.533955
6,2,4,32,centre,congLeft,180,1,0.43462
6,2,4,33,centre,congRight,180,1,0.386345
6,2,4,34,lower,incongRight,180,1,0.603665
6,2,4,35,blank,congRight,180,1,0.457135
6,2,4,36,blank,incongLeft,180,1,0.52841
6,2,4,37,blank,congLeft,180,1,0.45116
6,2,4,38,upper,congLeft,0,1,0.33466
6,2,4,39,centre,incongRight,0,1,0.533815
6,2,4,40,blank,congRight,180,1,0.48964
6,2,4,41,upper,incongRight,0,1,0.534875
6,2,4,42,blank,congLeft,0,1,0.41828
6,2,4,43,blank,incongLeft,0,1,0.60113
6,2,4,44,blank,congLeft,0,1,0.534215
6,2,4,45,lower,congLeft,180,1,0.383735
6,2,4,46,centre,congRight,180,1,0.401135
6,2,4,47,centre,incongLeft,180,1,0.47668
6,2,4,48,lower,congLeft,180,1,0.360275
6,3,4,1,upper,incongRight,0,1,0.40523
6,3,4,2,lower,congLeft,180,1,0.334445
6,3,4,3,blank,incongRight,0,1,0.53442
6,3,4,4,lower,incongLeft,180,1,0.41908
6,3,4,5,blank,congLeft,0,1,0.48474
6,3,4,6,blank,congRight,180,1,0.48433
6,3,4,7,blank,congRight,0,1,0.385355
6,3,4,8,centre,incongLeft,0,1,0.55073
6,3,4,9,upper,incongLeft,0,1,0.39063
6,3,4,10,centre,incongLeft,180,1,0.452475
6,3,4,11,blank,incongLeft,0,1,0.469265
6,3,4,12,blank,incongLeft,180,0,0.418075
6,3,4,13,centre,congRight,0,1,0.392985
6,3,4,14,blank,congLeft,0,1,0.408395
6,3,4,15,lower,incongRight,180,1,0.46777
6,3,4,16,centre,congLeft,180,1,0.451045
6,3,4,17,upper,incongLeft,0,1,0.48844
6,3,4,18,upper,congRight,0,1,0.35528
6,3,4,19,blank,congLeft,180,1,0.472905
6,3,4,20,blank,incongRight,0,1,0.60053
6,3,4,21,upper,congLeft,0,1,0.38455
6,3,4,22,lower,incongLeft,180,1,0.42193
6,3,4,23,lower,congLeft,180,1,0.360695
6,3,4,24,centre,incongRight,0,1,0.55097
6,3,4,25,centre,incongRight,0,1,0.542845
6,3,4,26,blank,incongRight,180,1,0.527665
6,3,4,27,centre,congLeft,0,1,0.433805
6,3,4,28,lower,congRight,180,1,0.367805
6,3,4,29,blank,congLeft,180,1,0.450995
6,3,4,30,blank,incongLeft,0,1,0.567595
6,3,4,31,centre,congLeft,0,1,0.38876
6,3,4,32,blank,incongLeft,180,1,0.62622
6,3,4,33,centre,incongRight,180,1,0.542285
6,3,4,34,centre,congRight,180,1,0.47287
6,3,4,35,lower,incongRight,180,1,0.427215
6,3,4,36,centre,incongRight,180,1,0.49248
6,3,4,37,centre,incongLeft,0,1,0.601235
6,3,4,38,blank,incongRight,180,1,0.601375
6,3,4,39,centre,congRight,180,1,0.43405
6,3,4,40,upper,incongRight,0,1,0.469365
6,3,4,41,blank,congRight,0,1,0.504065
6,3,4,42,upper,congRight,0,1,0.33393
6,3,4,43,upper,congLeft,0,1,0.386645
6,3,4,44,centre,incongLeft,180,1,0.523915
6,3,4,45,centre,congLeft,180,1,0.42767
6,3,4,46,centre,congRight,0,1,0.42814
6,3,4,47,blank,congRight,180,1,0.517495
6,3,4,48,lower,congRight,180,1,0.39024
6,4,7,1,upper,incongLeft,0,1,0.429495
6,4,7,2,centre,incongLeft,0,1,0.463965
6,4,7,3,lower,incongLeft,180,1,0.387135
6,4,7,4,centre,congRight,180,1,0.385805
6,4,7,5,centre,congLeft,0,1,0.35719
6,4,7,6,blank,incongLeft,0,1,0.45812
6,4,7,7,centre,incongLeft,180,0,0.41265
6,4,7,8,lower,congRight,180,1,0.34695
6,4,7,9,centre,congLeft,180,1,0.42084
6,4,7,10,blank,congLeft,0,1,0.4801
6,4,7,11,blank,congLeft,180,1,0.45474
6,4,7,12,blank,congLeft,0,1,0.47967
6,4,7,13,upper,incongLeft,0,1,0.4066
6,4,7,14,lower,congLeft,180,1,0.3465
6,4,7,15,lower,incongLeft,180,1,0.429165
6,4,7,16,blank,incongLeft,180,1,0.41466
6,4,7,17,centre,incongRight,0,1,0.54623
6,4,7,18,lower,congRight,180,1,0.402155
6,4,7,19,blank,incongRight,0,1,0.49045
6,4,7,20,blank,congRight,0,1,0.44366
6,4,7,21,upper,incongRight,0,0,0.392025
6,4,7,22,blank,incongLeft,0,1,0.539675
6,4,7,23,centre,congLeft,0,1,0.45063
6,4,7,24,blank,congRight,180,1,0.451305
6,4,7,25,blank,congRight,180,1,0.402575
6,4,7,26,centre,incongRight,180,1,0.51886
6,4,7,27,centre,incongRight,0,1,0.53907
6,4,7,28,lower,incongRight,180,1,0.454495
6,4,7,29,centre,incongRight,180,1,0.533595
6,4,7,30,upper,congLeft,0,1,0.424595
6,4,7,31,blank,congRight,0,1,0.4672
6,4,7,32,centre,congRight,0,1,0.40596
6,4,7,33,upper,congLeft,0,1,0.3843
6,4,7,34,lower,congLeft,180,1,0.3874
6,4,7,35,centre,congLeft,180,1,0.423255
6,4,7,36,upper,incongRight,0,1,0.417385
6,4,7,37,blank,incongLeft,180,1,0.62208
6,4,7,38,blank,incongRight,0,1,0.534305
6,4,7,39,centre,congRight,0,1,0.418105
6,4,7,40,lower,incongRight,180,1,0.421275
6,4,7,41,blank,incongRight,180,1,0.602355
6,4,7,42,blank,congLeft,180,1,0.43463
6,4,7,43,blank,incongRight,180,1,0.52032
6,4,7,44,centre,congRight,180,1,0.4344
6,4,7,45,centre,incongLeft,0,0,0.46764
6,4,7,46,upper,congRight,0,1,0.40068
6,4,7,47,centre,incongLeft,180,1,0.471465
6,4,7,48,upper,congRight,0,1,0.36946
6,5,0,1,centre,congRight,0,1,0.396095
6,5,0,2,blank,congLeft,180,1,0.497255
6,5,0,3,centre,incongLeft,180,1,0.518295
6,5,0,4,centre,congLeft,0,1,0.42965
6,5,0,5,upper,incongLeft,0,1,0.435235
6,5,0,6,blank,incongLeft,180,1,0.556425
6,5,0,7,lower,incongRight,180,1,0.419685
6,5,0,8,centre,congLeft,180,1,0.404
6,5,0,9,blank,congRight,0,1,0.4158
6,5,0,10,upper,congRight,0,1,0.324585
6,5,0,11,blank,incongRight,0,1,0.532925
6,5,0,12,centre,congLeft,180,1,0.36348
6,5,0,13,blank,congLeft,0,1,0.51287
6,5,0,14,blank,congRight,180,1,0.395035
6,5,0,15,lower,incongLeft,180,1,0.45142
6,5,0,16,centre,incongLeft,0,1,0.514675
6,5,0,17,centre,incongLeft,180,1,0.489725
6,5,0,18,blank,congLeft,0,1,0.572895
6,5,0,19,blank,congRight,0,1,0.39585
6,5,0,20,blank,incongRight,180,1,0.520195
6,5,0,21,lower,incongRight,180,1,0.412935
6,5,0,22,lower,incongLeft,180,1,0.397255
6,5,0,23,lower,congLeft,180,1,0.395925
6,5,0,24,blank,incongLeft,0,1,0.61328
6,5,0,25,lower,congRight,180,1,0.45453
6,5,0,26,upper,congRight,0,1,0.341825
6,5,0,27,upper,incongLeft,0,1,0.403115
6,5,0,28,lower,congLeft,180,1,0.368175
6,5,0,29,centre,incongRight,180,1,0.499315
6,5,0,30,centre,incongRight,0,1,0.60057
6,5,0,31,centre,incongLeft,0,1,0.474165
6,5,0,32,blank,incongLeft,180,1,0.57956
6,5,0,33,centre,congRight,180,1,0.415925
6,5,0,34,centre,congRight,180,1,0.40551
6,5,0,35,upper,congLeft,0,1,0.363015
6,5,0,36,lower,congRight,180,1,0.374555
6,5,0,37,centre,incongRight,0,1,0.60065
6,5,0,38,upper,congLeft,0,1,0.362565
6,5,0,39,upper,incongRight,0,1,0.42942
6,5,0,40,blank,incongRight,0,1,0.549745
6,5,0,41,blank,congRight,180,1,0.562995
6,5,0,42,blank,congLeft,180,1,0.430055
6,5,0,43,centre,incongRight,180,1,0.615605
6,5,0,44,centre,congLeft,0,1,0.49845
6,5,0,45,centre,congRight,0,1,0.434715
6,5,0,46,blank,incongLeft,0,1,0.531575
6,5,0,47,upper,incongRight,0,1,0.48892
6,5,0,48,blank,incongRight,180,1,0.554075
6,6,4,1,blank,incongRight,0,1,0.584815
6,6,4,2,lower,congRight,180,1,0.35729
6,6,4,3,blank,congRight,180,1,0.47981
6,6,4,4,blank,congLeft,180,1,0.403235
6,6,4,5,lower,congLeft,180,1,0.33037
6,6,4,6,upper,congRight,0,1,0.363085
6,6,4,7,centre,congRight,180,1,0.36248
6,6,4,8,lower,congRight,180,1,0.33404
6,6,4,9,centre,incongLeft,0,0,0.346105
6,6,4,10,upper,incongRight,0,1,0.44653
6,6,4,11,blank,incongLeft,0,1,0.6121
6,6,4,12,blank,incongLeft,0,1,0.530205
6,6,4,13,blank,congRight,0,1,0.429095
6,6,4,14,blank,congRight,0,1,0.3914
6,6,4,15,centre,congRight,0,1,0.36919
6,6,4,16,blank,incongRight,180,1,0.629445
6,6,4,17,blank,congLeft,0,1,0.406455
6,6,4,18,upper,incongLeft,0,1,0.429985
6,6,4,19,centre,incongLeft,0,1,0.53298
6,6,4,20,centre,congRight,0,1,0.40583
6,6,4,21,lower,incongRight,180,1,0.430095
6,6,4,22,blank,incongRight,0,1,0.62919
6,6,4,23,lower,incongRight,180,1,0.406425
6,6,4,24,blank,incongLeft,180,1,0.48587
6,6,4,25,upper,congLeft,0,1,0.379345
6,6,4,26,centre,incongLeft,180,1,0.4818
6,6,4,27,lower,incongLeft,180,1,0.62918
6,6,4,28,centre,incongLeft,180,1,0.463785
6,6,4,29,blank,incongRight,180,1,0.53373
6,6,4,30,lower,incongLeft,180,1,0.41541
6,6,4,31,lower,congLeft,180,1,0.39875
6,6,4,32,centre,congRight,180,1,0.39054
6,6,4,33,blank,congLeft,180,1,0.44603
6,6,4,34,centre,incongRight,0,1,0.589145
6,6,4,35,centre,congLeft,0,1,0.44576
6,6,4,36,upper,incongRight,0,1,0.43998
6,6,4,37,blank,congRight,180,1,0.48141
6,6,4,38,centre,incongRight,0,1,0.496705
6,6,4,39,centre,congLeft,0,1,0.374705
6,6,4,40,blank,congLeft,0,1,0.387095
6,6,4,41,centre,congLeft,180,1,0.553365
6,6,4,42,upper,congLeft,0,1,0.34657
6,6,4,43,centre,congLeft,180,1,0.405495
6,6,4,44,upper,congRight,0,1,0.364725
6,6,4,45,upper,incongLeft,0,1,0.413245
6,6,4,46,blank,incongLeft,180,1,0.523965
6,6,4,47,centre,incongRight,180,1,0.512755
6,6,4,48,centre,incongRight,180,1,0.587185
6,7,7,1,lower,congLeft,180,1,0.321015
6,7,7,2,blank,congRight,180,1,0.372445
6,7,7,3,centre,congRight,180,1,0.346845
6,7,7,4,centre,incongLeft,0,0,0.366045
6,7,7,5,centre,incongRight,0,1,0.505605
6,7,7,6,centre,congLeft,0,1,0.34708
6,7,7,7,blank,congRight,0,1,0.405005
6,7,7,8,upper,incongRight,0,1,0.396615
6,7,7,9,blank,congRight,180,1,0.413775
6,7,7,10,upper,congRight,0,1,0.300905
6,7,7,11,blank,incongLeft,180,0,0.38255
6,7,7,12,upper,incongRight,0,1,0.384765
6,7,7,13,blank,incongRight,0,1,0.548115
6,7,7,14,blank,congLeft,180,1,0.42973
6,7,7,15,blank,incongRight,180,1,0.587595
6,7,7,16,centre,incongRight,180,1,0.525405
6,7,7,17,blank,congLeft,0,1,0.4796
6,7,7,18,blank,congLeft,0,1,0.54885
6,7,7,19,centre,congLeft,180,1,0.437695
6,7,7,20,lower,congRight,180,1,0.379295
6,7,7,21,centre,congRight,180,1,0.3896
6,7,7,22,centre,incongLeft,180,1,0.505335
6,7,7,23,centre,congLeft,180,1,0.36285
6,7,7,24,blank,incongLeft,0,1,0.746475
6,7,7,25,lower,congRight,180,1,0.35828
6,7,7,26,centre,incongLeft,180,1,0.44972
6,7,7,27,centre,incongLeft,0,0,0.39568
6,7,7,28,blank,congLeft,180,1,0.5296
6,7,7,29,blank,incongLeft,0,1,0.52898
6,7,7,30,lower,congLeft,180,1,0.391285
6,7,7,31,lower,incongRight,180,1,0.438885
6,7,7,32,blank,congRight,0,1,0.44971
6,7,7,33,blank,incongLeft,180,1,0.59915
6,7,7,34,upper,congLeft,0,1,0.368035
6,7,7,35,lower,incongLeft,180,1,0.46258
6,7,7,36,upper,congLeft,0,1,0.35189
6,7,7,37,upper,congRight,0,1,0.317825
6,7,7,38,lower,incongLeft,180,1,0.451275
6,7,7,39,centre,congLeft,0,1,0.4223
6,7,7,40,blank,incongRight,0,1,0.60425
6,7,7,41,centre,congRight,0,1,0.429105
6,7,7,42,upper,incongLeft,0,1,0.4295
6,7,7,43,lower,incongRight,180,1,0.408135
6,7,7,44,upper,incongLeft,0,1,0.445945
6,7,7,45,blank,incongRight,180,1,0.532445
